# Constants and Parameters

# Final flow velocity (u_f): 1000 (m/s) - The final velocity of the flow
# Initial particle velocity (u_0): 0 (m/s) - The initial velocity of the particle
# Particle radius (r_is): 1e-06 (m) - The radius of the particle
# Nozzle radius (r_n): 0.05 (m) - The radius of the nozzle
# Particle density (q): 7874 (kg/m^3) - The density of the particle
# Gas density (q_g): 1.2754 (kg/m^3) - The density of the gas
# Gas constant (R): 8.31446 (J/(kg*K)) - The specific gas constant
# Gamma: 1.4# Molar mass of air (M): 0.029 (kg/mol) - The molar mass of air
# Gas temperature (T): 300 (K) - The temperature of the gas
# Reference temperature (T_0): 291.15 (K) - The reference temperature for gas
# Reference viscosity (eta_0): 1.827e-05 (Pa*s) - The reference viscosity of the gas
# Specific heat capacity of the gas (Cp): 460 (J/(kg*K)) - The specific heat capacity of the gas
# Speed of sound (Sound speed): 347.011 (m/s) - The speed of sound in the gas
# Dynamic viscosity (Viscosity): 1.91093e-05 (Pa*s) - The dynamic viscosity of the gas






# i  t  v  x  h  fi
0 0 0 0 0.001 278.028
1 0.001 226.18 0.11309 0.0008 238.988
2 0.0018 356.135 0.346016 0.00064 222.312
3 0.00244 467.587 0.609607 0.000512 377.844
4 0.002952 546.657 0.869254 0.0004096 255.913
5 0.0033616 586.503 1.10132 0.00032768 198.677
6 0.00368928 610.643 1.29747 0.000262144 170.256
7 0.00395142 626.797 1.45966 0.000209715 153.759
8 0.00416114 638.228 1.59231 0.000167772 143.263
9 0.00432891 646.606 1.70009 0.000134218 136.2
10 0.00446313 652.89 1.78729 0.000107374 131.267
11 0.0045705 657.7 1.85766 8.58993e-05 128.739
12 0.0046564 661.438 1.91431 6.87195e-05 126.912
13 0.00472512 664.362 1.95987 5.49756e-05 125.55
14 0.0047801 666.661 1.99645 4.39805e-05 124.519
15 0.00482408 668.476 2.02581 3.51844e-05 123.729
16 0.00485926 669.912 2.04936 2.81475e-05 123.118
17 0.00488741 671.052 2.06823 2.2518e-05 122.641
18 0.00490993 671.958 2.08335 1.80144e-05 122.268
19 0.00492794 672.679 2.09546 1.44115e-05 121.974
20 0.00494235 673.253 2.10516 1.15292e-05 121.742
21 0.00495388 673.711 2.11293 9.22337e-06 121.558
22 0.00496311 674.076 2.11914 7.3787e-06 121.412
23 0.00497049 674.368 2.12412 5.90296e-06 121.296
24 0.00497639 674.601 2.1281 4.72237e-06 121.204
25 0.00498111 674.787 2.13128 4.72237e-06 121.13
26 0.00498583 674.973 2.13447 4.72237e-06 121.057
27 0.00499056 675.159 2.13766 4.72237e-06 120.984
28 0.00499528 675.344 2.14085 4.72237e-06 120.912
29 0.005 675.53 2.14404 4.72237e-06 120.839
30 0.00500472 675.715 2.14723 4.72237e-06 120.767
31 0.00500944 675.9 2.15042 4.72237e-06 120.695
32 0.00501417 676.084 2.15361 4.72237e-06 120.623
33 0.00501889 676.269 2.15681 4.72237e-06 120.552
34 0.00502361 676.453 2.16 4.72237e-06 120.481
35 0.00502833 676.637 2.16319 4.72237e-06 120.41
36 0.00503306 676.821 2.16639 4.72237e-06 120.339
37 0.00503778 677.004 2.16959 4.72237e-06 120.269
38 0.0050425 677.187 2.17278 4.72237e-06 120.199
39 0.00504722 677.371 2.17598 4.72237e-06 120.129
40 0.00505195 677.553 2.17918 4.72237e-06 120.06
41 0.00505667 677.736 2.18238 4.72237e-06 119.99
42 0.00506139 677.919 2.18558 4.72237e-06 119.921
43 0.00506611 678.101 2.18878 4.72237e-06 119.852
44 0.00507084 678.283 2.19199 4.72237e-06 119.783
45 0.00507556 678.465 2.19519 4.72237e-06 119.715
46 0.00508028 678.647 2.19839 4.72237e-06 119.647
47 0.005085 678.828 2.2016 4.72237e-06 119.579
48 0.00508972 679.009 2.20481 4.72237e-06 119.511
49 0.00509445 679.19 2.20801 4.72237e-06 119.444
50 0.00509917 679.371 2.21122 4.72237e-06 119.377
51 0.00510389 679.552 2.21443 4.72237e-06 119.31
52 0.00510861 679.732 2.21764 4.72237e-06 119.243
53 0.00511334 679.913 2.22085 4.72237e-06 119.176
54 0.00511806 680.093 2.22406 4.72237e-06 119.11
55 0.00512278 680.272 2.22727 4.72237e-06 119.044
56 0.0051275 680.452 2.23049 4.72237e-06 118.978
57 0.00513223 680.632 2.2337 4.72237e-06 118.912
58 0.00513695 680.811 2.23691 4.72237e-06 118.847
59 0.00514167 680.99 2.24013 4.72237e-06 118.782
60 0.00514639 681.169 2.24335 4.72237e-06 118.717
61 0.00515112 681.347 2.24656 4.72237e-06 118.652
62 0.00515584 681.526 2.24978 4.72237e-06 118.588
63 0.00516056 681.704 2.253 4.72237e-06 118.523
64 0.00516528 681.882 2.25622 4.72237e-06 118.459
65 0.00517001 682.06 2.25944 4.72237e-06 118.395
66 0.00517473 682.238 2.26266 4.72237e-06 118.332
67 0.00517945 682.415 2.26588 4.72237e-06 118.268
68 0.00518417 682.592 2.26911 4.72237e-06 118.205
69 0.00518889 682.769 2.27233 4.72237e-06 118.142
70 0.00519362 682.946 2.27556 4.72237e-06 118.079
71 0.00519834 683.123 2.27878 4.72237e-06 118.017
72 0.00520306 683.3 2.28201 4.72237e-06 117.954
73 0.00520778 683.476 2.28523 4.72237e-06 117.892
74 0.00521251 683.652 2.28846 4.72237e-06 117.83
75 0.00521723 683.828 2.29169 4.72237e-06 117.768
76 0.00522195 684.004 2.29492 4.72237e-06 117.706
77 0.00522667 684.179 2.29815 4.72237e-06 117.645
78 0.0052314 684.355 2.30138 4.72237e-06 117.584
79 0.00523612 684.53 2.30462 4.72237e-06 117.523
80 0.00524084 684.705 2.30785 4.72237e-06 117.462
81 0.00524556 684.88 2.31108 4.72237e-06 117.401
82 0.00525029 685.054 2.31432 4.72237e-06 117.341
83 0.00525501 685.229 2.31755 4.72237e-06 117.281
84 0.00525973 685.403 2.32079 4.72237e-06 117.221
85 0.00526445 685.577 2.32403 4.72237e-06 117.161
86 0.00526917 685.751 2.32726 4.72237e-06 117.101
87 0.0052739 685.924 2.3305 4.72237e-06 117.042
88 0.00527862 686.098 2.33374 4.72237e-06 116.983
89 0.00528334 686.271 2.33698 4.72237e-06 116.923
90 0.00528806 686.444 2.34022 4.72237e-06 116.865
91 0.00529279 686.617 2.34347 4.72237e-06 116.806
92 0.00529751 686.79 2.34671 4.72237e-06 116.747
93 0.00530223 686.963 2.34995 4.72237e-06 116.689
94 0.00530695 687.135 2.3532 4.72237e-06 116.631
95 0.00531168 687.307 2.35644 4.72237e-06 116.573
96 0.0053164 687.479 2.35969 4.72237e-06 116.515
97 0.00532112 687.651 2.36294 4.72237e-06 116.457
98 0.00532584 687.823 2.36618 4.72237e-06 116.4
99 0.00533057 687.994 2.36943 4.72237e-06 116.343
100 0.00533529 688.166 2.37268 4.72237e-06 116.286
101 0.00534001 688.337 2.37593 4.72237e-06 116.229
102 0.00534473 688.508 2.37918 4.72237e-06 116.172
103 0.00534946 688.679 2.38243 4.72237e-06 116.115
104 0.00535418 688.849 2.38569 4.72237e-06 116.059
105 0.0053589 689.02 2.38894 4.72237e-06 116.003
106 0.00536362 689.19 2.39219 4.72237e-06 115.947
107 0.00536834 689.36 2.39545 4.72237e-06 115.891
108 0.00537307 689.53 2.3987 4.72237e-06 115.835
109 0.00537779 689.7 2.40196 4.72237e-06 115.779
110 0.00538251 689.869 2.40522 4.72237e-06 115.724
111 0.00538723 690.039 2.40848 4.72237e-06 115.669
112 0.00539196 690.208 2.41174 4.72237e-06 115.614
113 0.00539668 690.377 2.415 4.72237e-06 115.559
114 0.0054014 690.546 2.41826 4.72237e-06 115.504
115 0.00540612 690.715 2.42152 4.72237e-06 115.45
116 0.00541085 690.883 2.42478 4.72237e-06 115.395
117 0.00541557 691.051 2.42804 4.72237e-06 115.341
118 0.00542029 691.22 2.43131 4.72237e-06 115.287
119 0.00542501 691.388 2.43457 4.72237e-06 115.233
120 0.00542974 691.556 2.43784 4.72237e-06 115.179
121 0.00543446 691.723 2.4411 4.72237e-06 115.126
122 0.00543918 691.891 2.44437 4.72237e-06 115.072
123 0.0054439 692.058 2.44764 4.72237e-06 115.019
124 0.00544862 692.225 2.45091 4.72237e-06 114.966
125 0.00545335 692.392 2.45418 4.72237e-06 114.913
126 0.00545807 692.559 2.45745 4.72237e-06 114.86
127 0.00546279 692.726 2.46072 4.72237e-06 114.807
128 0.00546751 692.892 2.46399 4.72237e-06 114.755
129 0.00547224 693.059 2.46726 4.72237e-06 114.702
130 0.00547696 693.225 2.47053 4.72237e-06 114.65
131 0.00548168 693.391 2.47381 4.72237e-06 114.598
132 0.0054864 693.557 2.47708 4.72237e-06 114.546
133 0.00549113 693.722 2.48036 4.72237e-06 114.494
134 0.00549585 693.888 2.48363 4.72237e-06 114.443
135 0.00550057 694.053 2.48691 4.72237e-06 114.391
136 0.00550529 694.218 2.49019 4.72237e-06 114.34
137 0.00551002 694.383 2.49347 4.72237e-06 114.289
138 0.00551474 694.548 2.49675 4.72237e-06 114.238
139 0.00551946 694.713 2.50003 4.72237e-06 114.187
140 0.00552418 694.878 2.50331 4.72237e-06 114.136
141 0.00552891 695.042 2.50659 4.72237e-06 114.085
142 0.00553363 695.206 2.50987 4.72237e-06 114.035
143 0.00553835 695.37 2.51316 4.72237e-06 113.985
144 0.00554307 695.534 2.51644 4.72237e-06 113.934
145 0.00554779 695.698 2.51973 4.72237e-06 113.884
146 0.00555252 695.861 2.52301 4.72237e-06 113.834
147 0.00555724 696.025 2.5263 4.72237e-06 113.785
148 0.00556196 696.188 2.52959 4.72237e-06 113.735
149 0.00556668 696.351 2.53287 4.72237e-06 113.685
150 0.00557141 696.514 2.53616 4.72237e-06 113.636
151 0.00557613 696.677 2.53945 4.72237e-06 113.587
152 0.00558085 696.84 2.54274 4.72237e-06 113.538
153 0.00558557 697.002 2.54603 4.72237e-06 113.489
154 0.0055903 697.164 2.54933 4.72237e-06 113.44
155 0.00559502 697.326 2.55262 4.72237e-06 113.391
156 0.00559974 697.488 2.55591 4.72237e-06 113.343
157 0.00560446 697.65 2.55921 4.72237e-06 113.294
158 0.00560919 697.812 2.5625 4.72237e-06 113.246
159 0.00561391 697.974 2.5658 4.72237e-06 113.198
160 0.00561863 698.135 2.56909 4.72237e-06 113.15
161 0.00562335 698.296 2.57239 4.72237e-06 113.102
162 0.00562807 698.457 2.57569 4.72237e-06 113.054
163 0.0056328 698.618 2.57899 4.72237e-06 113.006
164 0.00563752 698.779 2.58229 4.72237e-06 112.959
165 0.00564224 698.939 2.58559 4.72237e-06 112.911
166 0.00564696 699.1 2.58889 4.72237e-06 112.864
167 0.00565169 699.26 2.59219 4.72237e-06 112.817
168 0.00565641 699.42 2.59549 4.72237e-06 112.77
169 0.00566113 699.58 2.5988 4.72237e-06 112.723
170 0.00566585 699.74 2.6021 4.72237e-06 112.676
171 0.00567058 699.9 2.6054 4.72237e-06 112.629
172 0.0056753 700.059 2.60871 4.72237e-06 112.583
173 0.00568002 700.219 2.61202 4.72237e-06 112.536
174 0.00568474 700.378 2.61532 4.72237e-06 112.49
175 0.00568947 700.537 2.61863 4.72237e-06 112.444
176 0.00569419 700.696 2.62194 4.72237e-06 112.398
177 0.00569891 700.855 2.62525 4.72237e-06 112.352
178 0.00570363 701.014 2.62856 4.72237e-06 112.306
179 0.00570835 701.172 2.63187 4.72237e-06 112.26
180 0.00571308 701.33 2.63518 4.72237e-06 112.215
181 0.0057178 701.489 2.63849 4.72237e-06 112.169
182 0.00572252 701.647 2.64181 4.72237e-06 112.124
183 0.00572724 701.804 2.64512 4.72237e-06 112.078
184 0.00573197 701.962 2.64844 4.72237e-06 112.033
185 0.00573669 702.12 2.65175 4.72237e-06 111.988
186 0.00574141 702.277 2.65507 4.72237e-06 111.943
187 0.00574613 702.435 2.65838 4.72237e-06 111.899
188 0.00575086 702.592 2.6617 4.72237e-06 111.854
189 0.00575558 702.749 2.66502 4.72237e-06 111.809
190 0.0057603 702.906 2.66834 4.72237e-06 111.765
191 0.00576502 703.062 2.67166 4.72237e-06 111.72
192 0.00576975 703.219 2.67498 4.72237e-06 111.676
193 0.00577447 703.375 2.6783 4.72237e-06 111.632
194 0.00577919 703.532 2.68162 4.72237e-06 111.588
195 0.00578391 703.688 2.68494 4.72237e-06 111.544
196 0.00578864 703.844 2.68827 4.72237e-06 111.5
197 0.00579336 704 2.69159 4.72237e-06 111.457
198 0.00579808 704.156 2.69492 4.72237e-06 111.413
199 0.0058028 704.311 2.69824 4.72237e-06 111.37
200 0.00580752 704.467 2.70157 4.72237e-06 111.326
201 0.00581225 704.622 2.7049 4.72237e-06 111.283
202 0.00581697 704.777 2.70822 4.72237e-06 111.24
203 0.00582169 704.932 2.71155 4.72237e-06 111.197
204 0.00582641 705.087 2.71488 4.72237e-06 111.154
205 0.00583114 705.242 2.71821 4.72237e-06 111.111
206 0.00583586 705.396 2.72154 4.72237e-06 111.068
207 0.00584058 705.551 2.72487 4.72237e-06 111.025
208 0.0058453 705.705 2.72821 4.72237e-06 110.983
209 0.00585003 705.859 2.73154 4.72237e-06 110.94
210 0.00585475 706.013 2.73487 4.72237e-06 110.898
211 0.00585947 706.167 2.73821 4.72237e-06 110.856
212 0.00586419 706.321 2.74154 4.72237e-06 110.814
213 0.00586892 706.474 2.74488 4.72237e-06 110.772
214 0.00587364 706.628 2.74822 4.72237e-06 110.73
215 0.00587836 706.781 2.75155 4.72237e-06 110.688
216 0.00588308 706.934 2.75489 4.72237e-06 110.646
217 0.0058878 707.088 2.75823 4.72237e-06 110.604
218 0.00589253 707.24 2.76157 4.72237e-06 110.563
219 0.00589725 707.393 2.76491 4.72237e-06 110.521
220 0.00590197 707.546 2.76825 4.72237e-06 110.48
221 0.00590669 707.698 2.77159 4.72237e-06 110.439
222 0.00591142 707.851 2.77493 4.72237e-06 110.398
223 0.00591614 708.003 2.77828 4.72237e-06 110.357
224 0.00592086 708.155 2.78162 4.72237e-06 110.316
225 0.00592558 708.307 2.78497 4.72237e-06 110.275
226 0.00593031 708.459 2.78831 4.72237e-06 110.234
227 0.00593503 708.611 2.79166 4.72237e-06 110.193
228 0.00593975 708.762 2.795 4.72237e-06 110.153
229 0.00594447 708.914 2.79835 4.72237e-06 110.112
230 0.0059492 709.065 2.8017 4.72237e-06 110.072
231 0.00595392 709.216 2.80505 4.72237e-06 110.031
232 0.00595864 709.367 2.8084 4.72237e-06 109.991
233 0.00596336 709.518 2.81175 4.72237e-06 109.951
234 0.00596809 709.669 2.8151 4.72237e-06 109.911
235 0.00597281 709.819 2.81845 4.72237e-06 109.871
236 0.00597753 709.97 2.8218 4.72237e-06 109.831
237 0.00598225 710.12 2.82516 4.72237e-06 109.791
238 0.00598697 710.27 2.82851 4.72237e-06 109.752
239 0.0059917 710.421 2.83186 4.72237e-06 109.712
240 0.00599642 710.571 2.83522 4.72237e-06 109.673
241 0.00600114 710.72 2.83857 4.72237e-06 109.633
242 0.00600586 710.87 2.84193 4.72237e-06 109.594
243 0.00601059 711.02 2.84529 4.72237e-06 109.554
244 0.00601531 711.169 2.84865 4.72237e-06 109.515
245 0.00602003 711.318 2.85201 4.72237e-06 109.476
246 0.00602475 711.468 2.85537 4.72237e-06 109.437
247 0.00602948 711.617 2.85873 4.72237e-06 109.398
248 0.0060342 711.766 2.86209 4.72237e-06 109.359
249 0.00603892 711.914 2.86545 4.72237e-06 109.321
250 0.00604364 712.063 2.86881 4.72237e-06 109.282
251 0.00604837 712.211 2.87217 4.72237e-06 109.244
252 0.00605309 712.36 2.87554 4.72237e-06 109.205
253 0.00605781 712.508 2.8789 4.72237e-06 109.167
254 0.00606253 712.656 2.88227 4.72237e-06 109.128
255 0.00606725 712.804 2.88563 4.72237e-06 109.09
256 0.00607198 712.952 2.889 4.72237e-06 109.052
257 0.0060767 713.1 2.89237 4.72237e-06 109.014
258 0.00608142 713.248 2.89573 4.72237e-06 108.976
259 0.00608614 713.395 2.8991 4.72237e-06 108.938
260 0.00609087 713.542 2.90247 4.72237e-06 108.9
261 0.00609559 713.69 2.90584 4.72237e-06 108.862
262 0.00610031 713.837 2.90921 4.72237e-06 108.825
263 0.00610503 713.984 2.91258 4.72237e-06 108.787
264 0.00610976 714.131 2.91596 4.72237e-06 108.75
265 0.00611448 714.277 2.91933 4.72237e-06 108.712
266 0.0061192 714.424 2.9227 4.72237e-06 108.675
267 0.00612392 714.571 2.92608 4.72237e-06 108.637
268 0.00612865 714.717 2.92945 4.72237e-06 108.6
269 0.00613337 714.863 2.93283 4.72237e-06 108.563
270 0.00613809 715.009 2.9362 4.72237e-06 108.526
271 0.00614281 715.155 2.93958 4.72237e-06 108.489
272 0.00614754 715.301 2.94296 4.72237e-06 108.452
273 0.00615226 715.447 2.94633 4.72237e-06 108.415
274 0.00615698 715.593 2.94971 4.72237e-06 108.379
275 0.0061617 715.738 2.95309 4.72237e-06 108.342
276 0.00616642 715.883 2.95647 4.72237e-06 108.305
277 0.00617115 716.029 2.95985 4.72237e-06 108.269
278 0.00617587 716.174 2.96324 4.72237e-06 108.233
279 0.00618059 716.319 2.96662 4.72237e-06 108.196
280 0.00618531 716.464 2.97 4.72237e-06 108.16
281 0.00619004 716.608 2.97339 4.72237e-06 108.124
282 0.00619476 716.753 2.97677 4.72237e-06 108.087
283 0.00619948 716.898 2.98016 4.72237e-06 108.051
284 0.0062042 717.042 2.98354 4.72237e-06 108.015
285 0.00620893 717.186 2.98693 4.72237e-06 107.979
286 0.00621365 717.33 2.99031 4.72237e-06 107.944
287 0.00621837 717.474 2.9937 4.72237e-06 107.908
288 0.00622309 717.618 2.99709 4.72237e-06 107.872
289 0.00622782 717.762 3.00048 4.72237e-06 107.837
290 0.00623254 717.906 3.00387 4.72237e-06 107.801
291 0.00623726 718.049 3.00726 4.72237e-06 107.765
292 0.00624198 718.193 3.01065 4.72237e-06 107.73
293 0.0062467 718.336 3.01404 4.72237e-06 107.695
294 0.00625143 718.479 3.01744 4.72237e-06 107.659
295 0.00625615 718.622 3.02083 4.72237e-06 107.624
296 0.00626087 718.765 3.02422 4.72237e-06 107.589
297 0.00626559 718.908 3.02762 4.72237e-06 107.554
298 0.00627032 719.051 3.03101 4.72237e-06 107.519
299 0.00627504 719.193 3.03441 4.72237e-06 107.484
300 0.00627976 719.336 3.03781 4.72237e-06 107.449
301 0.00628448 719.478 3.0412 4.72237e-06 107.414
302 0.00628921 719.621 3.0446 4.72237e-06 107.38
303 0.00629393 719.763 3.048 4.72237e-06 107.345
304 0.00629865 719.905 3.0514 4.72237e-06 107.31
305 0.00630337 720.047 3.0548 4.72237e-06 107.276
306 0.0063081 720.188 3.0582 4.72237e-06 107.241
307 0.00631282 720.33 3.0616 4.72237e-06 107.207
308 0.00631754 720.471 3.065 4.72237e-06 107.173
309 0.00632226 720.613 3.06841 4.72237e-06 107.138
310 0.00632698 720.754 3.07181 4.72237e-06 107.104
311 0.00633171 720.895 3.07521 4.72237e-06 107.07
312 0.00633643 721.036 3.07862 4.72237e-06 107.036
313 0.00634115 721.177 3.08202 4.72237e-06 107.002
314 0.00634587 721.318 3.08543 4.72237e-06 106.968
315 0.0063506 721.459 3.08884 4.72237e-06 106.934
316 0.00635532 721.6 3.09224 4.72237e-06 106.9
317 0.00636004 721.74 3.09565 4.72237e-06 106.866
318 0.00636476 721.88 3.09906 4.72237e-06 106.833
319 0.00636949 722.021 3.10247 4.72237e-06 106.799
320 0.00637421 722.161 3.10588 4.72237e-06 106.765
321 0.00637893 722.301 3.10929 4.72237e-06 106.732
322 0.00638365 722.441 3.1127 4.72237e-06 106.699
323 0.00638838 722.58 3.11611 4.72237e-06 106.665
324 0.0063931 722.72 3.11953 4.72237e-06 106.632
325 0.00639782 722.86 3.12294 4.72237e-06 106.599
326 0.00640254 722.999 3.12635 4.72237e-06 106.565
327 0.00640727 723.139 3.12977 4.72237e-06 106.532
328 0.00641199 723.278 3.13318 4.72237e-06 106.499
329 0.00641671 723.417 3.1366 4.72237e-06 106.466
330 0.00642143 723.556 3.14002 4.72237e-06 106.433
331 0.00642615 723.695 3.14343 4.72237e-06 106.4
332 0.00643088 723.834 3.14685 4.72237e-06 106.367
333 0.0064356 723.972 3.15027 4.72237e-06 106.335
334 0.00644032 724.111 3.15369 4.72237e-06 106.302
335 0.00644504 724.249 3.15711 4.72237e-06 106.269
336 0.00644977 724.388 3.16053 4.72237e-06 106.237
337 0.00645449 724.526 3.16395 4.72237e-06 106.204
338 0.00645921 724.664 3.16737 4.72237e-06 106.172
339 0.00646393 724.802 3.17079 4.72237e-06 106.139
340 0.00646866 724.94 3.17422 4.72237e-06 106.107
341 0.00647338 725.077 3.17764 4.72237e-06 106.075
342 0.0064781 725.215 3.18106 4.72237e-06 106.042
343 0.00648282 725.353 3.18449 4.72237e-06 106.01
344 0.00648755 725.49 3.18792 4.72237e-06 105.978
345 0.00649227 725.627 3.19134 4.72237e-06 105.946
346 0.00649699 725.765 3.19477 4.72237e-06 105.914
347 0.00650171 725.902 3.1982 4.72237e-06 105.882
348 0.00650643 726.039 3.20162 4.72237e-06 105.85
349 0.00651116 726.176 3.20505 4.72237e-06 105.818
350 0.00651588 726.312 3.20848 4.72237e-06 105.786
351 0.0065206 726.449 3.21191 4.72237e-06 105.754
352 0.00652532 726.586 3.21534 4.72237e-06 105.723
353 0.00653005 726.722 3.21878 4.72237e-06 105.691
354 0.00653477 726.858 3.22221 4.72237e-06 105.66
355 0.00653949 726.995 3.22564 4.72237e-06 105.628
356 0.00654421 727.131 3.22907 4.72237e-06 105.597
357 0.00654894 727.267 3.23251 4.72237e-06 105.565
358 0.00655366 727.403 3.23594 4.72237e-06 105.534
359 0.00655838 727.539 3.23938 4.72237e-06 105.502
360 0.0065631 727.674 3.24281 4.72237e-06 105.471
361 0.00656783 727.81 3.24625 4.72237e-06 105.44
362 0.00657255 727.945 3.24969 4.72237e-06 105.409
363 0.00657727 728.081 3.25313 4.72237e-06 105.378
364 0.00658199 728.216 3.25657 4.72237e-06 105.347
365 0.00658672 728.351 3.26 4.72237e-06 105.316
366 0.00659144 728.486 3.26344 4.72237e-06 105.285
367 0.00659616 728.621 3.26688 4.72237e-06 105.254
368 0.00660088 728.756 3.27033 4.72237e-06 105.223
369 0.0066056 728.891 3.27377 4.72237e-06 105.192
370 0.00661033 729.025 3.27721 4.72237e-06 105.161
371 0.00661505 729.16 3.28065 4.72237e-06 105.131
372 0.00661977 729.294 3.2841 4.72237e-06 105.1
373 0.00662449 729.429 3.28754 4.72237e-06 105.07
374 0.00662922 729.563 3.29099 4.72237e-06 105.039
375 0.00663394 729.697 3.29443 4.72237e-06 105.009
376 0.00663866 729.831 3.29788 4.72237e-06 104.978
377 0.00664338 729.965 3.30132 4.72237e-06 104.948
378 0.00664811 730.098 3.30477 4.72237e-06 104.917
379 0.00665283 730.232 3.30822 4.72237e-06 104.887
380 0.00665755 730.366 3.31167 4.72237e-06 104.857
381 0.00666227 730.499 3.31512 4.72237e-06 104.827
382 0.006667 730.633 3.31857 4.72237e-06 104.797
383 0.00667172 730.766 3.32202 4.72237e-06 104.766
384 0.00667644 730.899 3.32547 4.72237e-06 104.736
385 0.00668116 731.032 3.32892 4.72237e-06 104.706
386 0.00668588 731.165 3.33237 4.72237e-06 104.676
387 0.00669061 731.298 3.33583 4.72237e-06 104.647
388 0.00669533 731.43 3.33928 4.72237e-06 104.617
389 0.00670005 731.563 3.34274 4.72237e-06 104.587
390 0.00670477 731.696 3.34619 4.72237e-06 104.557
391 0.0067095 731.828 3.34965 4.72237e-06 104.528
392 0.00671422 731.96 3.3531 4.72237e-06 104.498
393 0.00671894 732.093 3.35656 4.72237e-06 104.468
394 0.00672366 732.225 3.36002 4.72237e-06 104.439
395 0.00672839 732.357 3.36348 4.72237e-06 104.409
396 0.00673311 732.489 3.36693 4.72237e-06 104.38
397 0.00673783 732.62 3.37039 4.72237e-06 104.35
398 0.00674255 732.752 3.37385 4.72237e-06 104.321
399 0.00674728 732.884 3.37731 4.72237e-06 104.292
400 0.006752 733.015 3.38078 4.72237e-06 104.262
401 0.00675672 733.147 3.38424 4.72237e-06 104.233
402 0.00676144 733.278 3.3877 4.72237e-06 104.204
403 0.00676617 733.409 3.39116 4.72237e-06 104.175
404 0.00677089 733.54 3.39463 4.72237e-06 104.146
405 0.00677561 733.671 3.39809 4.72237e-06 104.117
406 0.00678033 733.802 3.40156 4.72237e-06 104.088
407 0.00678505 733.933 3.40502 4.72237e-06 104.059
408 0.00678978 734.064 3.40849 4.72237e-06 104.03
409 0.0067945 734.194 3.41195 4.72237e-06 104.001
410 0.00679922 734.325 3.41542 4.72237e-06 103.972
411 0.00680394 734.455 3.41889 4.72237e-06 103.943
412 0.00680867 734.585 3.42236 4.72237e-06 103.914
413 0.00681339 734.716 3.42583 4.72237e-06 103.886
414 0.00681811 734.846 3.4293 4.72237e-06 103.857
415 0.00682283 734.976 3.43277 4.72237e-06 103.828
416 0.00682756 735.106 3.43624 4.72237e-06 103.8
417 0.00683228 735.235 3.43971 4.72237e-06 103.771
418 0.006837 735.365 3.44318 4.72237e-06 103.743
419 0.00684172 735.495 3.44666 4.72237e-06 103.714
420 0.00684645 735.624 3.45013 4.72237e-06 103.686
421 0.00685117 735.754 3.4536 4.72237e-06 103.658
422 0.00685589 735.883 3.45708 4.72237e-06 103.629
423 0.00686061 736.012 3.46055 4.72237e-06 103.601
424 0.00686533 736.141 3.46403 4.72237e-06 103.573
425 0.00687006 736.27 3.46751 4.72237e-06 103.545
426 0.00687478 736.399 3.47098 4.72237e-06 103.517
427 0.0068795 736.528 3.47446 4.72237e-06 103.488
428 0.00688422 736.657 3.47794 4.72237e-06 103.46
429 0.00688895 736.785 3.48142 4.72237e-06 103.432
430 0.00689367 736.914 3.4849 4.72237e-06 103.404
431 0.00689839 737.042 3.48838 4.72237e-06 103.376
432 0.00690311 737.171 3.49186 4.72237e-06 103.349
433 0.00690784 737.299 3.49534 4.72237e-06 103.321
434 0.00691256 737.427 3.49882 4.72237e-06 103.293
435 0.00691728 737.555 3.50231 4.72237e-06 103.265
436 0.006922 737.683 3.50579 4.72237e-06 103.237
437 0.00692673 737.811 3.50927 4.72237e-06 103.21
438 0.00693145 737.938 3.51276 4.72237e-06 103.182
439 0.00693617 738.066 3.51624 4.72237e-06 103.154
440 0.00694089 738.194 3.51973 4.72237e-06 103.127
441 0.00694561 738.321 3.52322 4.72237e-06 103.099
442 0.00695034 738.448 3.5267 4.72237e-06 103.072
443 0.00695506 738.576 3.53019 4.72237e-06 103.044
444 0.00695978 738.703 3.53368 4.72237e-06 103.017
445 0.0069645 738.83 3.53717 4.72237e-06 102.99
446 0.00696923 738.957 3.54066 4.72237e-06 102.962
447 0.00697395 739.084 3.54415 4.72237e-06 102.935
448 0.00697867 739.211 3.54764 4.72237e-06 102.908
449 0.00698339 739.337 3.55113 4.72237e-06 102.88
450 0.00698812 739.464 3.55462 4.72237e-06 102.853
451 0.00699284 739.59 3.55811 4.72237e-06 102.826
452 0.00699756 739.717 3.56161 4.72237e-06 102.799
453 0.00700228 739.843 3.5651 4.72237e-06 102.772
454 0.00700701 739.969 3.56859 4.72237e-06 102.745
455 0.00701173 740.095 3.57209 4.72237e-06 102.718
456 0.00701645 740.221 3.57558 4.72237e-06 102.691
457 0.00702117 740.347 3.57908 4.72237e-06 102.664
458 0.0070259 740.473 3.58258 4.72237e-06 102.637
459 0.00703062 740.599 3.58607 4.72237e-06 102.61
460 0.00703534 740.725 3.58957 4.72237e-06 102.583
461 0.00704006 740.85 3.59307 4.72237e-06 102.557
462 0.00704478 740.976 3.59657 4.72237e-06 102.53
463 0.00704951 741.101 3.60007 4.72237e-06 102.503
464 0.00705423 741.226 3.60357 4.72237e-06 102.477
465 0.00705895 741.351 3.60707 4.72237e-06 102.45
466 0.00706367 741.477 3.61057 4.72237e-06 102.423
467 0.0070684 741.602 3.61407 4.72237e-06 102.397
468 0.00707312 741.726 3.61757 4.72237e-06 102.37
469 0.00707784 741.851 3.62108 4.72237e-06 102.344
470 0.00708256 741.976 3.62458 4.72237e-06 102.317
471 0.00708729 742.101 3.62808 4.72237e-06 102.291
472 0.00709201 742.225 3.63159 4.72237e-06 102.265
473 0.00709673 742.35 3.63509 4.72237e-06 102.238
474 0.00710145 742.474 3.6386 4.72237e-06 102.212
475 0.00710618 742.598 3.64211 4.72237e-06 102.186
476 0.0071109 742.722 3.64561 4.72237e-06 102.16
477 0.00711562 742.846 3.64912 4.72237e-06 102.133
478 0.00712034 742.97 3.65263 4.72237e-06 102.107
479 0.00712506 743.094 3.65614 4.72237e-06 102.081
480 0.00712979 743.218 3.65965 4.72237e-06 102.055
481 0.00713451 743.342 3.66316 4.72237e-06 102.029
482 0.00713923 743.465 3.66667 4.72237e-06 102.003
483 0.00714395 743.589 3.67018 4.72237e-06 101.977
484 0.00714868 743.712 3.67369 4.72237e-06 101.951
485 0.0071534 743.836 3.6772 4.72237e-06 101.925
486 0.00715812 743.959 3.68072 4.72237e-06 101.899
487 0.00716284 744.082 3.68423 4.72237e-06 101.873
488 0.00716757 744.205 3.68774 4.72237e-06 101.848
489 0.00717229 744.328 3.69126 4.72237e-06 101.822
490 0.00717701 744.451 3.69477 4.72237e-06 101.796
491 0.00718173 744.574 3.69829 4.72237e-06 101.77
492 0.00718646 744.697 3.70181 4.72237e-06 101.745
493 0.00719118 744.819 3.70532 4.72237e-06 101.719
494 0.0071959 744.942 3.70884 4.72237e-06 101.693
495 0.00720062 745.064 3.71236 4.72237e-06 101.668
496 0.00720535 745.187 3.71588 4.72237e-06 101.642
497 0.00721007 745.309 3.7194 4.72237e-06 101.617
498 0.00721479 745.431 3.72292 4.72237e-06 101.591
499 0.00721951 745.553 3.72644 4.72237e-06 101.566
500 0.00722423 745.675 3.72996 4.72237e-06 101.54
501 0.00722896 745.797 3.73348 4.72237e-06 101.515
502 0.00723368 745.919 3.737 4.72237e-06 101.49
503 0.0072384 746.041 3.74053 4.72237e-06 101.464
504 0.00724312 746.162 3.74405 4.72237e-06 101.439
505 0.00724785 746.284 3.74757 4.72237e-06 101.414
506 0.00725257 746.405 3.7511 4.72237e-06 101.389
507 0.00725729 746.527 3.75462 4.72237e-06 101.363
508 0.00726201 746.648 3.75815 4.72237e-06 101.338
509 0.00726674 746.769 3.76167 4.72237e-06 101.313
510 0.00727146 746.89 3.7652 4.72237e-06 101.288
511 0.00727618 747.011 3.76873 4.72237e-06 101.263
512 0.0072809 747.132 3.77226 4.72237e-06 101.238
513 0.00728563 747.253 3.77578 4.72237e-06 101.213
514 0.00729035 747.374 3.77931 4.72237e-06 101.188
515 0.00729507 747.494 3.78284 4.72237e-06 101.163
516 0.00729979 747.615 3.78637 4.72237e-06 101.138
517 0.00730451 747.735 3.7899 4.72237e-06 101.113
518 0.00730924 747.856 3.79344 4.72237e-06 101.088
519 0.00731396 747.976 3.79697 4.72237e-06 101.064
520 0.00731868 748.096 3.8005 4.72237e-06 101.039
521 0.0073234 748.217 3.80403 4.72237e-06 101.014
522 0.00732813 748.337 3.80757 4.72237e-06 100.989
523 0.00733285 748.457 3.8111 4.72237e-06 100.965
524 0.00733757 748.577 3.81464 4.72237e-06 100.94
525 0.00734229 748.696 3.81817 4.72237e-06 100.915
526 0.00734702 748.816 3.82171 4.72237e-06 100.891
527 0.00735174 748.936 3.82524 4.72237e-06 100.866
528 0.00735646 749.055 3.82878 4.72237e-06 100.842
529 0.00736118 749.175 3.83232 4.72237e-06 100.817
530 0.00736591 749.294 3.83586 4.72237e-06 100.793
531 0.00737063 749.413 3.8394 4.72237e-06 100.768
532 0.00737535 749.533 3.84293 4.72237e-06 100.744
533 0.00738007 749.652 3.84647 4.72237e-06 100.719
534 0.0073848 749.771 3.85001 4.72237e-06 100.695
535 0.00738952 749.89 3.85356 4.72237e-06 100.671
536 0.00739424 750.008 3.8571 4.72237e-06 100.646
537 0.00739896 750.127 3.86064 4.72237e-06 100.622
538 0.00740368 750.246 3.86418 4.72237e-06 100.598
539 0.00740841 750.365 3.86773 4.72237e-06 100.574
540 0.00741313 750.483 3.87127 4.72237e-06 100.549
541 0.00741785 750.602 3.87481 4.72237e-06 100.525
542 0.00742257 750.72 3.87836 4.72237e-06 100.501
543 0.0074273 750.838 3.8819 4.72237e-06 100.477
544 0.00743202 750.956 3.88545 4.72237e-06 100.453
545 0.00743674 751.074 3.889 4.72237e-06 100.429
546 0.00744146 751.192 3.89254 4.72237e-06 100.405
547 0.00744619 751.31 3.89609 4.72237e-06 100.381
548 0.00745091 751.428 3.89964 4.72237e-06 100.357
549 0.00745563 751.546 3.90319 4.72237e-06 100.333
550 0.00746035 751.664 3.90674 4.72237e-06 100.309
551 0.00746508 751.781 3.91029 4.72237e-06 100.285
552 0.0074698 751.899 3.91384 4.72237e-06 100.261
553 0.00747452 752.016 3.91739 4.72237e-06 100.237
554 0.00747924 752.134 3.92094 4.72237e-06 100.214
555 0.00748396 752.251 3.92449 4.72237e-06 100.19
556 0.00748869 752.368 3.92805 4.72237e-06 100.166
557 0.00749341 752.485 3.9316 4.72237e-06 100.142
558 0.00749813 752.602 3.93515 4.72237e-06 100.119
559 0.00750285 752.719 3.93871 4.72237e-06 100.095
560 0.00750758 752.836 3.94226 4.72237e-06 100.071
561 0.0075123 752.953 3.94582 4.72237e-06 100.048
562 0.00751702 753.069 3.94937 4.72237e-06 100.024
563 0.00752174 753.186 3.95293 4.72237e-06 100.001
564 0.00752647 753.302 3.95649 4.72237e-06 99.9772
565 0.00753119 753.419 3.96004 4.72237e-06 99.9537
566 0.00753591 753.535 3.9636 4.72237e-06 99.9302
567 0.00754063 753.651 3.96716 4.72237e-06 99.9068
568 0.00754536 753.768 3.97072 4.72237e-06 99.8833
569 0.00755008 753.884 3.97428 4.72237e-06 99.8599
570 0.0075548 754 3.97784 4.72237e-06 99.8366
571 0.00755952 754.116 3.9814 4.72237e-06 99.8132
572 0.00756425 754.232 3.98496 4.72237e-06 99.7899
573 0.00756897 754.347 3.98853 4.72237e-06 99.7666
574 0.00757369 754.463 3.99209 4.72237e-06 99.7434
575 0.00757841 754.579 3.99565 4.72237e-06 99.7201
576 0.00758313 754.694 3.99921 4.72237e-06 99.6969
577 0.00758786 754.81 4.00278 4.72237e-06 99.6737
578 0.00759258 754.925 4.00634 4.72237e-06 99.6506
579 0.0075973 755.04 4.00991 4.72237e-06 99.6274
580 0.00760202 755.155 4.01347 4.72237e-06 99.6043
581 0.00760675 755.271 4.01704 4.72237e-06 99.5812
582 0.00761147 755.386 4.02061 4.72237e-06 99.5582
583 0.00761619 755.501 4.02418 4.72237e-06 99.5352
584 0.00762091 755.616 4.02774 4.72237e-06 99.5121
585 0.00762564 755.73 4.03131 4.72237e-06 99.4892
586 0.00763036 755.845 4.03488 4.72237e-06 99.4662
587 0.00763508 755.96 4.03845 4.72237e-06 99.4433
588 0.0076398 756.074 4.04202 4.72237e-06 99.4204
589 0.00764453 756.189 4.04559 4.72237e-06 99.3975
590 0.00764925 756.303 4.04916 4.72237e-06 99.3746
591 0.00765397 756.417 4.05274 4.72237e-06 99.3518
592 0.00765869 756.532 4.05631 4.72237e-06 99.329
593 0.00766341 756.646 4.05988 4.72237e-06 99.3062
594 0.00766814 756.76 4.06345 4.72237e-06 99.2834
595 0.00767286 756.874 4.06703 4.72237e-06 99.2607
596 0.00767758 756.988 4.0706 4.72237e-06 99.238
597 0.0076823 757.102 4.07418 4.72237e-06 99.2153
598 0.00768703 757.215 4.07775 4.72237e-06 99.1927
599 0.00769175 757.329 4.08133 4.72237e-06 99.17
600 0.00769647 757.443 4.08491 4.72237e-06 99.1474
601 0.00770119 757.556 4.08848 4.72237e-06 99.1248
602 0.00770592 757.67 4.09206 4.72237e-06 99.1023
603 0.00771064 757.783 4.09564 4.72237e-06 99.0797
604 0.00771536 757.896 4.09922 4.72237e-06 99.0572
605 0.00772008 758.01 4.1028 4.72237e-06 99.0347
606 0.00772481 758.123 4.10638 4.72237e-06 99.0122
607 0.00772953 758.236 4.10996 4.72237e-06 98.9898
608 0.00773425 758.349 4.11354 4.72237e-06 98.9674
609 0.00773897 758.462 4.11712 4.72237e-06 98.945
610 0.00774369 758.575 4.1207 4.72237e-06 98.9226
611 0.00774842 758.687 4.12428 4.72237e-06 98.9003
612 0.00775314 758.8 4.12787 4.72237e-06 98.8779
613 0.00775786 758.913 4.13145 4.72237e-06 98.8556
614 0.00776258 759.025 4.13503 4.72237e-06 98.8333
615 0.00776731 759.137 4.13862 4.72237e-06 98.8111
616 0.00777203 759.25 4.1422 4.72237e-06 98.7888
617 0.00777675 759.362 4.14579 4.72237e-06 98.7666
618 0.00778147 759.474 4.14938 4.72237e-06 98.7444
619 0.0077862 759.586 4.15296 4.72237e-06 98.7223
620 0.00779092 759.698 4.15655 4.72237e-06 98.7001
621 0.00779564 759.81 4.16014 4.72237e-06 98.678
622 0.00780036 759.922 4.16373 4.72237e-06 98.6559
623 0.00780509 760.034 4.16732 4.72237e-06 98.6338
624 0.00780981 760.146 4.17091 4.72237e-06 98.6118
625 0.00781453 760.257 4.1745 4.72237e-06 98.5898
626 0.00781925 760.369 4.17809 4.72237e-06 98.5678
627 0.00782398 760.481 4.18168 4.72237e-06 98.5458
628 0.0078287 760.592 4.18527 4.72237e-06 98.5238
629 0.00783342 760.703 4.18886 4.72237e-06 98.5019
630 0.00783814 760.815 4.19245 4.72237e-06 98.48
631 0.00784286 760.926 4.19605 4.72237e-06 98.4581
632 0.00784759 761.037 4.19964 4.72237e-06 98.4362
633 0.00785231 761.148 4.20323 4.72237e-06 98.4143
634 0.00785703 761.259 4.20683 4.72237e-06 98.3925
635 0.00786175 761.37 4.21042 4.72237e-06 98.3707
636 0.00786648 761.481 4.21402 4.72237e-06 98.3489
637 0.0078712 761.591 4.21762 4.72237e-06 98.3272
638 0.00787592 761.702 4.22121 4.72237e-06 98.3054
639 0.00788064 761.813 4.22481 4.72237e-06 98.2837
640 0.00788537 761.923 4.22841 4.72237e-06 98.262
641 0.00789009 762.034 4.23201 4.72237e-06 98.2403
642 0.00789481 762.144 4.2356 4.72237e-06 98.2187
643 0.00789953 762.254 4.2392 4.72237e-06 98.197
644 0.00790426 762.364 4.2428 4.72237e-06 98.1754
645 0.00790898 762.475 4.2464 4.72237e-06 98.1538
646 0.0079137 762.585 4.25001 4.72237e-06 98.1323
647 0.00791842 762.695 4.25361 4.72237e-06 98.1107
648 0.00792314 762.805 4.25721 4.72237e-06 98.0892
649 0.00792787 762.914 4.26081 4.72237e-06 98.0677
650 0.00793259 763.024 4.26441 4.72237e-06 98.0462
651 0.00793731 763.134 4.26802 4.72237e-06 98.0247
652 0.00794203 763.243 4.27162 4.72237e-06 98.0033
653 0.00794676 763.353 4.27523 4.72237e-06 97.9819
654 0.00795148 763.462 4.27883 4.72237e-06 97.9605
655 0.0079562 763.572 4.28244 4.72237e-06 97.9391
656 0.00796092 763.681 4.28604 4.72237e-06 97.9177
657 0.00796565 763.79 4.28965 4.72237e-06 97.8964
658 0.00797037 763.9 4.29326 4.72237e-06 97.8751
659 0.00797509 764.009 4.29686 4.72237e-06 97.8538
660 0.00797981 764.118 4.30047 4.72237e-06 97.8325
661 0.00798454 764.227 4.30408 4.72237e-06 97.8112
662 0.00798926 764.335 4.30769 4.72237e-06 97.79
663 0.00799398 764.444 4.3113 4.72237e-06 97.7688
664 0.0079987 764.553 4.31491 4.72237e-06 97.7476
665 0.00800343 764.662 4.31852 4.72237e-06 97.7264
666 0.00800815 764.77 4.32213 4.72237e-06 97.7053
667 0.00801287 764.879 4.32574 4.72237e-06 97.6841
668 0.00801759 764.987 4.32936 4.72237e-06 97.663
669 0.00802231 765.095 4.33297 4.72237e-06 97.6419
670 0.00802704 765.204 4.33658 4.72237e-06 97.6209
671 0.00803176 765.312 4.3402 4.72237e-06 97.5998
672 0.00803648 765.42 4.34381 4.72237e-06 97.5788
673 0.0080412 765.528 4.34743 4.72237e-06 97.5578
674 0.00804593 765.636 4.35104 4.72237e-06 97.5368
675 0.00805065 765.744 4.35466 4.72237e-06 97.5158
676 0.00805537 765.852 4.35827 4.72237e-06 97.4948
677 0.00806009 765.96 4.36189 4.72237e-06 97.4739
678 0.00806482 766.067 4.36551 4.72237e-06 97.453
679 0.00806954 766.175 4.36913 4.72237e-06 97.4321
680 0.00807426 766.282 4.37274 4.72237e-06 97.4112
681 0.00807898 766.39 4.37636 4.72237e-06 97.3904
682 0.00808371 766.497 4.37998 4.72237e-06 97.3695
683 0.00808843 766.605 4.3836 4.72237e-06 97.3487
684 0.00809315 766.712 4.38722 4.72237e-06 97.3279
685 0.00809787 766.819 4.39084 4.72237e-06 97.3071
686 0.00810259 766.926 4.39447 4.72237e-06 97.2864
687 0.00810732 767.033 4.39809 4.72237e-06 97.2656
688 0.00811204 767.14 4.40171 4.72237e-06 97.2449
689 0.00811676 767.247 4.40533 4.72237e-06 97.2242
690 0.00812148 767.354 4.40896 4.72237e-06 97.2035
691 0.00812621 767.461 4.41258 4.72237e-06 97.1829
692 0.00813093 767.567 4.4162 4.72237e-06 97.1622
693 0.00813565 767.674 4.41983 4.72237e-06 97.1416
694 0.00814037 767.781 4.42346 4.72237e-06 97.121
695 0.0081451 767.887 4.42708 4.72237e-06 97.1004
696 0.00814982 767.993 4.43071 4.72237e-06 97.0798
697 0.00815454 768.1 4.43433 4.72237e-06 97.0593
698 0.00815926 768.206 4.43796 4.72237e-06 97.0388
699 0.00816399 768.312 4.44159 4.72237e-06 97.0183
700 0.00816871 768.418 4.44522 4.72237e-06 96.9978
701 0.00817343 768.524 4.44885 4.72237e-06 96.9773
702 0.00817815 768.63 4.45248 4.72237e-06 96.9568
703 0.00818288 768.736 4.45611 4.72237e-06 96.9364
704 0.0081876 768.842 4.45974 4.72237e-06 96.916
705 0.00819232 768.948 4.46337 4.72237e-06 96.8956
706 0.00819704 769.054 4.467 4.72237e-06 96.8752
707 0.00820176 769.159 4.47063 4.72237e-06 96.8548
708 0.00820649 769.265 4.47426 4.72237e-06 96.8345
709 0.00821121 769.37 4.4779 4.72237e-06 96.8142
710 0.00821593 769.476 4.48153 4.72237e-06 96.7938
711 0.00822065 769.581 4.48517 4.72237e-06 96.7736
712 0.00822538 769.686 4.4888 4.72237e-06 96.7533
713 0.0082301 769.791 4.49243 4.72237e-06 96.733
714 0.00823482 769.897 4.49607 4.72237e-06 96.7128
715 0.00823954 770.002 4.49971 4.72237e-06 96.6926
716 0.00824427 770.107 4.50334 4.72237e-06 96.6724
717 0.00824899 770.211 4.50698 4.72237e-06 96.6522
718 0.00825371 770.316 4.51062 4.72237e-06 96.632
719 0.00825843 770.421 4.51426 4.72237e-06 96.6119
720 0.00826316 770.526 4.51789 4.72237e-06 96.5917
721 0.00826788 770.63 4.52153 4.72237e-06 96.5716
722 0.0082726 770.735 4.52517 4.72237e-06 96.5515
723 0.00827732 770.84 4.52881 4.72237e-06 96.5315
724 0.00828204 770.944 4.53245 4.72237e-06 96.5114
725 0.00828677 771.048 4.53609 4.72237e-06 96.4914
726 0.00829149 771.153 4.53973 4.72237e-06 96.4713
727 0.00829621 771.257 4.54338 4.72237e-06 96.4513
728 0.00830093 771.361 4.54702 4.72237e-06 96.4313
729 0.00830566 771.465 4.55066 4.72237e-06 96.4114
730 0.00831038 771.569 4.55431 4.72237e-06 96.3914
731 0.0083151 771.673 4.55795 4.72237e-06 96.3715
732 0.00831982 771.777 4.56159 4.72237e-06 96.3516
733 0.00832455 771.881 4.56524 4.72237e-06 96.3317
734 0.00832927 771.984 4.56888 4.72237e-06 96.3118
735 0.00833399 772.088 4.57253 4.72237e-06 96.2919
736 0.00833871 772.192 4.57618 4.72237e-06 96.2721
737 0.00834344 772.295 4.57982 4.72237e-06 96.2522
738 0.00834816 772.399 4.58347 4.72237e-06 96.2324
739 0.00835288 772.502 4.58712 4.72237e-06 96.2126
740 0.0083576 772.605 4.59077 4.72237e-06 96.1928
741 0.00836232 772.709 4.59441 4.72237e-06 96.1731
742 0.00836705 772.812 4.59806 4.72237e-06 96.1533
743 0.00837177 772.915 4.60171 4.72237e-06 96.1336
744 0.00837649 773.018 4.60536 4.72237e-06 96.1139
745 0.00838121 773.121 4.60901 4.72237e-06 96.0942
746 0.00838594 773.224 4.61267 4.72237e-06 96.0745
747 0.00839066 773.327 4.61632 4.72237e-06 96.0548
748 0.00839538 773.43 4.61997 4.72237e-06 96.0352
749 0.0084001 773.532 4.62362 4.72237e-06 96.0155
750 0.00840483 773.635 4.62728 4.72237e-06 95.9959
751 0.00840955 773.738 4.63093 4.72237e-06 95.9763
752 0.00841427 773.84 4.63458 4.72237e-06 95.9567
753 0.00841899 773.943 4.63824 4.72237e-06 95.9372
754 0.00842372 774.045 4.64189 4.72237e-06 95.9176
755 0.00842844 774.147 4.64555 4.72237e-06 95.8981
756 0.00843316 774.249 4.6492 4.72237e-06 95.8786
757 0.00843788 774.352 4.65286 4.72237e-06 95.8591
758 0.00844261 774.454 4.65652 4.72237e-06 95.8396
759 0.00844733 774.556 4.66018 4.72237e-06 95.8201
760 0.00845205 774.658 4.66383 4.72237e-06 95.8007
761 0.00845677 774.76 4.66749 4.72237e-06 95.7812
762 0.00846149 774.862 4.67115 4.72237e-06 95.7618
763 0.00846622 774.963 4.67481 4.72237e-06 95.7424
764 0.00847094 775.065 4.67847 4.72237e-06 95.723
765 0.00847566 775.167 4.68213 4.72237e-06 95.7037
766 0.00848038 775.268 4.68579 4.72237e-06 95.6843
767 0.00848511 775.37 4.68945 4.72237e-06 95.665
768 0.00848983 775.471 4.69311 4.72237e-06 95.6457
769 0.00849455 775.573 4.69678 4.72237e-06 95.6263
770 0.00849927 775.674 4.70044 4.72237e-06 95.6071
771 0.008504 775.775 4.7041 4.72237e-06 95.5878
772 0.00850872 775.876 4.70777 4.72237e-06 95.5685
773 0.00851344 775.977 4.71143 4.72237e-06 95.5493
774 0.00851816 776.079 4.7151 4.72237e-06 95.5301
775 0.00852289 776.18 4.71876 4.72237e-06 95.5108
776 0.00852761 776.28 4.72243 4.72237e-06 95.4916
777 0.00853233 776.381 4.72609 4.72237e-06 95.4725
778 0.00853705 776.482 4.72976 4.72237e-06 95.4533
779 0.00854177 776.583 4.73343 4.72237e-06 95.4342
780 0.0085465 776.683 4.73709 4.72237e-06 95.415
781 0.00855122 776.784 4.74076 4.72237e-06 95.3959
782 0.00855594 776.885 4.74443 4.72237e-06 95.3768
783 0.00856066 776.985 4.7481 4.72237e-06 95.3577
784 0.00856539 777.085 4.75177 4.72237e-06 95.3386
785 0.00857011 777.186 4.75544 4.72237e-06 95.3196
786 0.00857483 777.286 4.75911 4.72237e-06 95.3005
787 0.00857955 777.386 4.76278 4.72237e-06 95.2815
788 0.00858428 777.486 4.76645 4.72237e-06 95.2625
789 0.008589 777.586 4.77012 4.72237e-06 95.2435
790 0.00859372 777.686 4.7738 4.72237e-06 95.2245
791 0.00859844 777.786 4.77747 5.1946e-06 95.2056
792 0.00860364 777.896 4.78151 5.1946e-06 95.1847
793 0.00860883 778.006 4.78555 5.1946e-06 95.1639
794 0.00861403 778.116 4.78959 5.1946e-06 95.1431
795 0.00861922 778.225 4.79363 5.1946e-06 95.1223
796 0.00862442 778.335 4.79768 5.1946e-06 95.1015
797 0.00862961 778.444 4.80172 5.1946e-06 95.0808
798 0.00863481 778.554 4.80576 5.1946e-06 95.06
799 0.00864 778.663 4.80981 5.1946e-06 95.0393
800 0.00864519 778.772 4.81385 5.1946e-06 95.0186
801 0.00865039 778.881 4.8179 5.1946e-06 94.998
802 0.00865558 778.991 4.82195 5.1946e-06 94.9773
803 0.00866078 779.1 4.82599 5.1946e-06 94.9566
804 0.00866597 779.208 4.83004 5.1946e-06 94.936
805 0.00867117 779.317 4.83409 5.1946e-06 94.9154
806 0.00867636 779.426 4.83814 5.1946e-06 94.8948
807 0.00868156 779.535 4.84219 5.1946e-06 94.8742
808 0.00868675 779.643 4.84624 5.1946e-06 94.8537
809 0.00869195 779.752 4.85029 5.1946e-06 94.8331
810 0.00869714 779.86 4.85434 5.1946e-06 94.8126
811 0.00870234 779.969 4.85839 5.1946e-06 94.7921
812 0.00870753 780.077 4.86244 5.1946e-06 94.7716
813 0.00871272 780.185 4.86649 5.1946e-06 94.7512
814 0.00871792 780.293 4.87055 5.1946e-06 94.7307
815 0.00872311 780.401 4.8746 5.1946e-06 94.7103
816 0.00872831 780.509 4.87865 5.1946e-06 94.6899
817 0.0087335 780.617 4.88271 5.1946e-06 94.6695
818 0.0087387 780.725 4.88676 5.1946e-06 94.6491
819 0.00874389 780.833 4.89082 5.1946e-06 94.6287
820 0.00874909 780.941 4.89488 5.1946e-06 94.6084
821 0.00875428 781.048 4.89893 5.1946e-06 94.5881
822 0.00875948 781.156 4.90299 5.1946e-06 94.5677
823 0.00876467 781.263 4.90705 5.1946e-06 94.5474
824 0.00876987 781.371 4.91111 5.1946e-06 94.5272
825 0.00877506 781.478 4.91517 5.1946e-06 94.5069
826 0.00878025 781.585 4.91923 5.1946e-06 94.4867
827 0.00878545 781.692 4.92329 5.1946e-06 94.4664
828 0.00879064 781.8 4.92735 5.1946e-06 94.4462
829 0.00879584 781.907 4.93141 5.1946e-06 94.426
830 0.00880103 782.014 4.93547 5.1946e-06 94.4059
831 0.00880623 782.12 4.93953 5.1946e-06 94.3857
832 0.00881142 782.227 4.9436 5.1946e-06 94.3656
833 0.00881662 782.334 4.94766 5.1946e-06 94.3454
834 0.00882181 782.441 4.95172 5.1946e-06 94.3253
835 0.00882701 782.547 4.95579 5.1946e-06 94.3052
836 0.0088322 782.654 4.95985 5.1946e-06 94.2851
837 0.0088374 782.76 4.96392 5.1946e-06 94.2651
838 0.00884259 782.866 4.96799 5.1946e-06 94.245
839 0.00884778 782.973 4.97205 5.1946e-06 94.225
840 0.00885298 783.079 4.97612 5.1946e-06 94.205
841 0.00885817 783.185 4.98019 5.1946e-06 94.185
842 0.00886337 783.291 4.98426 5.1946e-06 94.165
843 0.00886856 783.397 4.98833 5.1946e-06 94.1451
844 0.00887376 783.503 4.9924 5.1946e-06 94.1251
845 0.00887895 783.609 4.99647 5.1946e-06 94.1052
846 0.00888415 783.714 5.00054 5.1946e-06 94.0853
847 0.00888934 783.82 5.00461 5.1946e-06 94.0654
848 0.00889454 783.926 5.00868 5.1946e-06 94.0455
849 0.00889973 784.031 5.01275 5.1946e-06 94.0257
850 0.00890492 784.137 5.01683 5.1946e-06 94.0058
851 0.00891012 784.242 5.0209 5.1946e-06 93.986
852 0.00891531 784.347 5.02497 5.1946e-06 93.9662
853 0.00892051 784.452 5.02905 5.1946e-06 93.9464
854 0.0089257 784.558 5.03312 5.1946e-06 93.9266
855 0.0089309 784.663 5.0372 5.1946e-06 93.9068
856 0.00893609 784.768 5.04127 5.1946e-06 93.8871
857 0.00894129 784.873 5.04535 5.1946e-06 93.8673
858 0.00894648 784.978 5.04943 5.1946e-06 93.8476
859 0.00895168 785.082 5.05351 5.1946e-06 93.8279
860 0.00895687 785.187 5.05759 5.1946e-06 93.8082
861 0.00896207 785.292 5.06166 5.1946e-06 93.7885
862 0.00896726 785.396 5.06574 5.1946e-06 93.7689
863 0.00897245 785.501 5.06982 5.1946e-06 93.7492
864 0.00897765 785.605 5.0739 5.1946e-06 93.7296
865 0.00898284 785.71 5.07799 5.1946e-06 93.71
866 0.00898804 785.814 5.08207 5.1946e-06 93.6904
867 0.00899323 785.918 5.08615 5.1946e-06 93.6708
868 0.00899843 786.022 5.09023 5.1946e-06 93.6513
869 0.00900362 786.126 5.09432 5.1946e-06 93.6317
870 0.00900882 786.23 5.0984 5.1946e-06 93.6122
871 0.00901401 786.334 5.10248 5.1946e-06 93.5927
872 0.00901921 786.438 5.10657 5.1946e-06 93.5732
873 0.0090244 786.542 5.11065 5.1946e-06 93.5537
874 0.0090296 786.645 5.11474 5.1946e-06 93.5342
875 0.00903479 786.749 5.11883 5.1946e-06 93.5148
876 0.00903998 786.853 5.12291 5.1946e-06 93.4953
877 0.00904518 786.956 5.127 5.1946e-06 93.4759
878 0.00905037 787.059 5.13109 5.1946e-06 93.4565
879 0.00905557 787.163 5.13518 5.1946e-06 93.4371
880 0.00906076 787.266 5.13927 5.1946e-06 93.4177
881 0.00906596 787.369 5.14336 5.1946e-06 93.3984
882 0.00907115 787.472 5.14745 5.1946e-06 93.379
883 0.00907635 787.575 5.15154 5.1946e-06 93.3597
884 0.00908154 787.678 5.15563 5.1946e-06 93.3404
885 0.00908674 787.781 5.15972 5.1946e-06 93.3211
886 0.00909193 787.884 5.16382 5.1946e-06 93.3018
887 0.00909713 787.987 5.16791 5.1946e-06 93.2825
888 0.00910232 788.09 5.172 5.1946e-06 93.2632
889 0.00910751 788.192 5.1761 5.1946e-06 93.244
890 0.00911271 788.295 5.18019 5.1946e-06 93.2248
891 0.0091179 788.397 5.18429 5.1946e-06 93.2056
892 0.0091231 788.5 5.18838 5.1946e-06 93.1864
893 0.00912829 788.602 5.19248 5.1946e-06 93.1672
894 0.00913349 788.704 5.19657 5.1946e-06 93.148
895 0.00913868 788.807 5.20067 5.1946e-06 93.1289
896 0.00914388 788.909 5.20477 5.1946e-06 93.1097
897 0.00914907 789.011 5.20887 5.1946e-06 93.0906
898 0.00915427 789.113 5.21297 5.1946e-06 93.0715
899 0.00915946 789.215 5.21707 5.1946e-06 93.0524
900 0.00916466 789.317 5.22117 5.1946e-06 93.0333
901 0.00916985 789.418 5.22527 5.1946e-06 93.0142
902 0.00917504 789.52 5.22937 5.1946e-06 92.9952
903 0.00918024 789.622 5.23347 5.1946e-06 92.9761
904 0.00918543 789.723 5.23757 5.1946e-06 92.9571
905 0.00919063 789.825 5.24167 5.1946e-06 92.9381
906 0.00919582 789.926 5.24578 5.1946e-06 92.9191
907 0.00920102 790.028 5.24988 5.1946e-06 92.9001
908 0.00920621 790.129 5.25398 5.1946e-06 92.8812
909 0.00921141 790.23 5.25809 5.1946e-06 92.8622
910 0.0092166 790.331 5.26219 5.1946e-06 92.8433
911 0.0092218 790.432 5.2663 5.1946e-06 92.8244
912 0.00922699 790.533 5.27041 5.1946e-06 92.8054
913 0.00923218 790.634 5.27451 5.1946e-06 92.7866
914 0.00923738 790.735 5.27862 5.1946e-06 92.7677
915 0.00924257 790.836 5.28273 5.1946e-06 92.7488
916 0.00924777 790.937 5.28684 5.1946e-06 92.73
917 0.00925296 791.037 5.29095 5.1946e-06 92.7111
918 0.00925816 791.138 5.29505 5.1946e-06 92.6923
919 0.00926335 791.238 5.29916 5.1946e-06 92.6735
920 0.00926855 791.339 5.30327 5.1946e-06 92.6547
921 0.00927374 791.439 5.30739 5.1946e-06 92.6359
922 0.00927894 791.54 5.3115 5.1946e-06 92.6171
923 0.00928413 791.64 5.31561 5.1946e-06 92.5984
924 0.00928933 791.74 5.31972 5.1946e-06 92.5796
925 0.00929452 791.84 5.32383 5.1946e-06 92.5609
926 0.00929971 791.94 5.32795 5.1946e-06 92.5422
927 0.00930491 792.04 5.33206 5.71406e-06 92.5235
928 0.00931062 792.15 5.33659 5.71406e-06 92.503
929 0.00931634 792.26 5.34112 5.71406e-06 92.4824
930 0.00932205 792.37 5.34564 5.71406e-06 92.4619
931 0.00932777 792.479 5.35017 5.71406e-06 92.4414
932 0.00933348 792.589 5.3547 5.71406e-06 92.4209
933 0.00933919 792.698 5.35923 5.71406e-06 92.4005
934 0.00934491 792.808 5.36376 5.71406e-06 92.38
935 0.00935062 792.917 5.36829 5.71406e-06 92.3596
936 0.00935634 793.026 5.37282 5.71406e-06 92.3391
937 0.00936205 793.136 5.37735 5.71406e-06 92.3187
938 0.00936776 793.245 5.38188 5.71406e-06 92.2984
939 0.00937348 793.354 5.38642 5.71406e-06 92.278
940 0.00937919 793.463 5.39095 5.71406e-06 92.2576
941 0.00938491 793.571 5.39548 5.71406e-06 92.2373
942 0.00939062 793.68 5.40002 5.71406e-06 92.217
943 0.00939633 793.789 5.40455 5.71406e-06 92.1967
944 0.00940205 793.897 5.40909 5.71406e-06 92.1764
945 0.00940776 794.006 5.41363 5.71406e-06 92.1561
946 0.00941348 794.114 5.41816 5.71406e-06 92.1358
947 0.00941919 794.223 5.4227 5.71406e-06 92.1156
948 0.0094249 794.331 5.42724 5.71406e-06 92.0954
949 0.00943062 794.439 5.43178 5.71406e-06 92.0752
950 0.00943633 794.547 5.43632 5.71406e-06 92.055
951 0.00944205 794.655 5.44086 5.71406e-06 92.0348
952 0.00944776 794.763 5.4454 5.71406e-06 92.0146
953 0.00945347 794.871 5.44994 5.71406e-06 91.9945
954 0.00945919 794.979 5.45449 5.71406e-06 91.9744
955 0.0094649 795.087 5.45903 5.71406e-06 91.9543
956 0.00947062 795.194 5.46357 5.71406e-06 91.9342
957 0.00947633 795.302 5.46812 5.71406e-06 91.9141
958 0.00948205 795.409 5.47266 5.71406e-06 91.894
959 0.00948776 795.517 5.47721 5.71406e-06 91.874
960 0.00949347 795.624 5.48175 5.71406e-06 91.8539
961 0.00949919 795.731 5.4863 5.71406e-06 91.8339
962 0.0095049 795.838 5.49085 5.71406e-06 91.8139
963 0.00951062 795.946 5.49539 5.71406e-06 91.7939
964 0.00951633 796.052 5.49994 5.71406e-06 91.774
965 0.00952204 796.159 5.50449 5.71406e-06 91.754
966 0.00952776 796.266 5.50904 5.71406e-06 91.7341
967 0.00953347 796.373 5.51359 5.71406e-06 91.7141
968 0.00953919 796.48 5.51814 5.71406e-06 91.6942
969 0.0095449 796.586 5.52269 5.71406e-06 91.6743
970 0.00955061 796.693 5.52725 5.71406e-06 91.6544
971 0.00955633 796.799 5.5318 5.71406e-06 91.6346
972 0.00956204 796.906 5.53635 5.71406e-06 91.6147
973 0.00956776 797.012 5.5409 5.71406e-06 91.5949
974 0.00957347 797.118 5.54546 5.71406e-06 91.5751
975 0.00957918 797.224 5.55001 5.71406e-06 91.5553
976 0.0095849 797.33 5.55457 5.71406e-06 91.5355
977 0.00959061 797.436 5.55913 5.71406e-06 91.5157
978 0.00959633 797.542 5.56368 5.71406e-06 91.496
979 0.00960204 797.648 5.56824 5.71406e-06 91.4762
980 0.00960775 797.754 5.5728 5.71406e-06 91.4565
981 0.00961347 797.859 5.57736 5.71406e-06 91.4368
982 0.00961918 797.965 5.58192 5.71406e-06 91.4171
983 0.0096249 798.07 5.58648 5.71406e-06 91.3974
984 0.00963061 798.176 5.59104 5.71406e-06 91.3777
985 0.00963632 798.281 5.5956 5.71406e-06 91.3581
986 0.00964204 798.386 5.60016 5.71406e-06 91.3385
987 0.00964775 798.492 5.60472 5.71406e-06 91.3188
988 0.00965347 798.597 5.60929 5.71406e-06 91.2992
989 0.00965918 798.702 5.61385 5.71406e-06 91.2796
990 0.0096649 798.807 5.61841 5.71406e-06 91.2601
991 0.00967061 798.912 5.62298 5.71406e-06 91.2405
992 0.00967632 799.016 5.62754 5.71406e-06 91.2209
993 0.00968204 799.121 5.63211 5.71406e-06 91.2014
994 0.00968775 799.226 5.63668 5.71406e-06 91.1819
995 0.00969347 799.33 5.64124 5.71406e-06 91.1624
996 0.00969918 799.435 5.64581 5.71406e-06 91.1429
997 0.00970489 799.539 5.65038 5.71406e-06 91.1234
998 0.00971061 799.643 5.65495 5.71406e-06 91.104
999 0.00971632 799.748 5.65952 5.71406e-06 91.0845
1000 0.00972204 799.852 5.66409 5.71406e-06 91.0651
1001 0.00972775 799.956 5.66866 5.71406e-06 91.0457
1002 0.00973346 800.06 5.67323 5.71406e-06 91.0263
1003 0.00973918 800.164 5.6778 5.71406e-06 91.0069
1004 0.00974489 800.268 5.68237 5.71406e-06 90.9875
1005 0.00975061 800.372 5.68695 5.71406e-06 90.9682
1006 0.00975632 800.475 5.69152 5.71406e-06 90.9488
1007 0.00976203 800.579 5.69609 5.71406e-06 90.9295
1008 0.00976775 800.683 5.70067 5.71406e-06 90.9102
1009 0.00977346 800.786 5.70525 5.71406e-06 90.8909
1010 0.00977918 800.89 5.70982 5.71406e-06 90.8716
1011 0.00978489 800.993 5.7144 5.71406e-06 90.8523
1012 0.0097906 801.096 5.71898 5.71406e-06 90.8331
1013 0.00979632 801.199 5.72355 5.71406e-06 90.8138
1014 0.00980203 801.303 5.72813 5.71406e-06 90.7946
1015 0.00980775 801.406 5.73271 5.71406e-06 90.7754
1016 0.00981346 801.509 5.73729 5.71406e-06 90.7562
1017 0.00981917 801.611 5.74187 5.71406e-06 90.737
1018 0.00982489 801.714 5.74645 5.71406e-06 90.7178
1019 0.0098306 801.817 5.75103 5.71406e-06 90.6986
1020 0.00983632 801.92 5.75561 5.71406e-06 90.6795
1021 0.00984203 802.022 5.7602 5.71406e-06 90.6604
1022 0.00984775 802.125 5.76478 5.71406e-06 90.6413
1023 0.00985346 802.227 5.76936 5.71406e-06 90.6222
1024 0.00985917 802.33 5.77395 5.71406e-06 90.6031
1025 0.00986489 802.432 5.77853 5.71406e-06 90.584
1026 0.0098706 802.534 5.78312 5.71406e-06 90.5649
1027 0.00987632 802.636 5.7877 5.71406e-06 90.5459
1028 0.00988203 802.738 5.79229 5.71406e-06 90.5268
1029 0.00988774 802.84 5.79688 5.71406e-06 90.5078
1030 0.00989346 802.942 5.80147 5.71406e-06 90.4888
1031 0.00989917 803.044 5.80605 5.71406e-06 90.4698
1032 0.00990489 803.146 5.81064 5.71406e-06 90.4509
1033 0.0099106 803.248 5.81523 5.71406e-06 90.4319
1034 0.00991631 803.349 5.81982 5.71406e-06 90.4129
1035 0.00992203 803.451 5.82441 5.71406e-06 90.394
1036 0.00992774 803.552 5.829 5.71406e-06 90.3751
1037 0.00993346 803.654 5.8336 5.71406e-06 90.3562
1038 0.00993917 803.755 5.83819 5.71406e-06 90.3373
1039 0.00994488 803.856 5.84278 5.71406e-06 90.3184
1040 0.0099506 803.958 5.84738 5.71406e-06 90.2995
1041 0.00995631 804.059 5.85197 5.71406e-06 90.2807
1042 0.00996203 804.16 5.85656 5.71406e-06 90.2618
1043 0.00996774 804.261 5.86116 5.71406e-06 90.243
1044 0.00997345 804.362 5.86576 5.71406e-06 90.2242
1045 0.00997917 804.462 5.87035 5.71406e-06 90.2054
1046 0.00998488 804.563 5.87495 5.71406e-06 90.1866
1047 0.0099906 804.664 5.87955 5.71406e-06 90.1678
1048 0.00999631 804.764 5.88414 5.71406e-06 90.149
1049 0.010002 804.865 5.88874 5.71406e-06 90.1303
1050 0.0100077 804.965 5.89334 5.71406e-06 90.1116
1051 0.0100135 805.066 5.89794 5.71406e-06 90.0928
1052 0.0100192 805.166 5.90254 5.71406e-06 90.0741
1053 0.0100249 805.266 5.90714 5.71406e-06 90.0554
1054 0.0100306 805.367 5.91175 5.71406e-06 90.0368
1055 0.0100363 805.467 5.91635 5.71406e-06 90.0181
1056 0.010042 805.567 5.92095 5.71406e-06 89.9994
1057 0.0100477 805.667 5.92555 6.28547e-06 89.9808
1058 0.010054 805.776 5.93062 6.28547e-06 89.9603
1059 0.0100603 805.886 5.93568 6.28547e-06 89.9398
1060 0.0100666 805.996 5.94075 6.28547e-06 89.9194
1061 0.0100729 806.106 5.94582 6.28547e-06 89.8989
1062 0.0100792 806.215 5.95088 6.28547e-06 89.8785
1063 0.0100855 806.325 5.95595 6.28547e-06 89.8581
1064 0.0100917 806.434 5.96102 6.28547e-06 89.8377
1065 0.010098 806.543 5.96609 6.28547e-06 89.8173
1066 0.0101043 806.652 5.97116 6.28547e-06 89.7969
1067 0.0101106 806.761 5.97623 6.28547e-06 89.7766
1068 0.0101169 806.87 5.9813 6.28547e-06 89.7563
1069 0.0101232 806.979 5.98637 6.28547e-06 89.7359
1070 0.0101294 807.088 5.99144 6.28547e-06 89.7156
1071 0.0101357 807.197 5.99652 6.28547e-06 89.6954
1072 0.010142 807.306 6.00159 6.28547e-06 89.6751
1073 0.0101483 807.414 6.00667 6.28547e-06 89.6548
1074 0.0101546 807.523 6.01174 6.28547e-06 89.6346
1075 0.0101609 807.631 6.01682 6.28547e-06 89.6144
1076 0.0101672 807.739 6.02189 6.28547e-06 89.5941
1077 0.0101734 807.847 6.02697 6.28547e-06 89.574
1078 0.0101797 807.956 6.03205 6.28547e-06 89.5538
1079 0.010186 808.064 6.03713 6.28547e-06 89.5336
1080 0.0101923 808.172 6.04221 6.28547e-06 89.5135
1081 0.0101986 808.28 6.04729 6.28547e-06 89.4933
1082 0.0102049 808.387 6.05237 6.28547e-06 89.4732
1083 0.0102112 808.495 6.05745 6.28547e-06 89.4531
1084 0.0102174 808.603 6.06253 6.28547e-06 89.433
1085 0.0102237 808.71 6.06761 6.28547e-06 89.413
1086 0.01023 808.818 6.0727 6.28547e-06 89.3929
1087 0.0102363 808.925 6.07778 6.28547e-06 89.3729
1088 0.0102426 809.032 6.08287 6.28547e-06 89.3528
1089 0.0102489 809.14 6.08795 6.28547e-06 89.3328
1090 0.0102552 809.247 6.09304 6.28547e-06 89.3128
1091 0.0102614 809.354 6.09813 6.28547e-06 89.2928
1092 0.0102677 809.461 6.10321 6.28547e-06 89.2729
1093 0.010274 809.568 6.1083 6.28547e-06 89.2529
1094 0.0102803 809.674 6.11339 6.28547e-06 89.233
1095 0.0102866 809.781 6.11848 6.28547e-06 89.2131
1096 0.0102929 809.888 6.12357 6.28547e-06 89.1932
1097 0.0102992 809.994 6.12866 6.28547e-06 89.1733
1098 0.0103054 810.101 6.13375 6.28547e-06 89.1534
1099 0.0103117 810.207 6.13884 6.28547e-06 89.1335
1100 0.010318 810.313 6.14394 6.28547e-06 89.1137
1101 0.0103243 810.42 6.14903 6.28547e-06 89.0938
1102 0.0103306 810.526 6.15412 6.28547e-06 89.074
1103 0.0103369 810.632 6.15922 6.28547e-06 89.0542
1104 0.0103432 810.738 6.16432 6.28547e-06 89.0344
1105 0.0103494 810.844 6.16941 6.28547e-06 89.0147
1106 0.0103557 810.949 6.17451 6.28547e-06 88.9949
1107 0.010362 811.055 6.17961 6.28547e-06 88.9751
1108 0.0103683 811.161 6.1847 6.28547e-06 88.9554
1109 0.0103746 811.266 6.1898 6.28547e-06 88.9357
1110 0.0103809 811.372 6.1949 6.28547e-06 88.916
1111 0.0103872 811.477 6.2 6.28547e-06 88.8963
1112 0.0103934 811.582 6.2051 6.28547e-06 88.8766
1113 0.0103997 811.688 6.21021 6.28547e-06 88.857
1114 0.010406 811.793 6.21531 6.28547e-06 88.8373
1115 0.0104123 811.898 6.22041 6.28547e-06 88.8177
1116 0.0104186 812.003 6.22551 6.28547e-06 88.7981
1117 0.0104249 812.108 6.23062 6.28547e-06 88.7785
1118 0.0104312 812.212 6.23572 6.28547e-06 88.7589
1119 0.0104374 812.317 6.24083 6.28547e-06 88.7393
1120 0.0104437 812.422 6.24593 6.28547e-06 88.7198
1121 0.01045 812.526 6.25104 6.28547e-06 88.7002
1122 0.0104563 812.631 6.25615 6.28547e-06 88.6807
1123 0.0104626 812.735 6.26126 6.28547e-06 88.6612
1124 0.0104689 812.84 6.26637 6.28547e-06 88.6417
1125 0.0104751 812.944 6.27147 6.28547e-06 88.6222
1126 0.0104814 813.048 6.27658 6.28547e-06 88.6027
1127 0.0104877 813.152 6.2817 6.28547e-06 88.5833
1128 0.010494 813.256 6.28681 6.28547e-06 88.5638
1129 0.0105003 813.36 6.29192 6.28547e-06 88.5444
1130 0.0105066 813.464 6.29703 6.28547e-06 88.525
1131 0.0105129 813.568 6.30214 6.28547e-06 88.5056
1132 0.0105191 813.671 6.30726 6.28547e-06 88.4862
1133 0.0105254 813.775 6.31237 6.28547e-06 88.4668
1134 0.0105317 813.878 6.31749 6.28547e-06 88.4475
1135 0.010538 813.982 6.3226 6.28547e-06 88.4281
1136 0.0105443 814.085 6.32772 6.28547e-06 88.4088
1137 0.0105506 814.188 6.33284 6.28547e-06 88.3895
1138 0.0105569 814.292 6.33796 6.28547e-06 88.3702
1139 0.0105631 814.395 6.34307 6.28547e-06 88.3509
1140 0.0105694 814.498 6.34819 6.28547e-06 88.3316
1141 0.0105757 814.601 6.35331 6.28547e-06 88.3123
1142 0.010582 814.704 6.35843 6.28547e-06 88.2931
1143 0.0105883 814.806 6.36356 6.28547e-06 88.2738
1144 0.0105946 814.909 6.36868 6.28547e-06 88.2546
1145 0.0106009 815.012 6.3738 6.28547e-06 88.2354
1146 0.0106071 815.114 6.37892 6.28547e-06 88.2162
1147 0.0106134 815.217 6.38405 6.28547e-06 88.197
1148 0.0106197 815.319 6.38917 6.28547e-06 88.1779
1149 0.010626 815.421 6.3943 6.28547e-06 88.1587
1150 0.0106323 815.524 6.39942 6.28547e-06 88.1396
1151 0.0106386 815.626 6.40455 6.28547e-06 88.1205
1152 0.0106449 815.728 6.40967 6.28547e-06 88.1013
1153 0.0106511 815.83 6.4148 6.28547e-06 88.0822
1154 0.0106574 815.932 6.41993 6.28547e-06 88.0632
1155 0.0106637 816.034 6.42506 6.28547e-06 88.0441
1156 0.01067 816.135 6.43019 6.28547e-06 88.025
1157 0.0106763 816.237 6.43532 6.28547e-06 88.006
1158 0.0106826 816.339 6.44045 6.28547e-06 87.9869
1159 0.0106889 816.44 6.44558 6.28547e-06 87.9679
1160 0.0106951 816.542 6.45071 6.28547e-06 87.9489
1161 0.0107014 816.643 6.45585 6.28547e-06 87.9299
1162 0.0107077 816.744 6.46098 6.28547e-06 87.911
1163 0.010714 816.846 6.46611 6.28547e-06 87.892
1164 0.0107203 816.947 6.47125 6.28547e-06 87.873
1165 0.0107266 817.048 6.47638 6.28547e-06 87.8541
1166 0.0107329 817.149 6.48152 6.28547e-06 87.8352
1167 0.0107391 817.25 6.48665 6.28547e-06 87.8163
1168 0.0107454 817.351 6.49179 6.28547e-06 87.7974
1169 0.0107517 817.451 6.49693 6.28547e-06 87.7785
1170 0.010758 817.552 6.50207 6.28547e-06 87.7596
1171 0.0107643 817.653 6.50721 6.28547e-06 87.7407
1172 0.0107706 817.753 6.51235 6.28547e-06 87.7219
1173 0.0107769 817.854 6.51749 6.28547e-06 87.7031
1174 0.0107831 817.954 6.52263 6.28547e-06 87.6842
1175 0.0107894 818.054 6.52777 6.28547e-06 87.6654
1176 0.0107957 818.154 6.53291 6.28547e-06 87.6466
1177 0.010802 818.255 6.53805 6.28547e-06 87.6279
1178 0.0108083 818.355 6.5432 6.28547e-06 87.6091
1179 0.0108146 818.455 6.54834 6.91402e-06 87.5903
1180 0.0108215 818.565 6.554 6.91402e-06 87.5697
1181 0.0108284 818.674 6.55966 6.91402e-06 87.5491
1182 0.0108353 818.784 6.56532 6.91402e-06 87.5286
1183 0.0108422 818.894 6.57098 6.91402e-06 87.508
1184 0.0108491 819.003 6.57665 6.91402e-06 87.4874
1185 0.010856 819.113 6.58231 6.91402e-06 87.4669
1186 0.010863 819.222 6.58797 6.91402e-06 87.4464
1187 0.0108699 819.331 6.59364 6.91402e-06 87.4259
1188 0.0108768 819.44 6.5993 6.91402e-06 87.4054
1189 0.0108837 819.549 6.60497 6.91402e-06 87.3849
1190 0.0108906 819.658 6.61063 6.91402e-06 87.3644
1191 0.0108975 819.767 6.6163 6.91402e-06 87.344
1192 0.0109044 819.876 6.62197 6.91402e-06 87.3236
1193 0.0109114 819.985 6.62764 6.91402e-06 87.3032
1194 0.0109183 820.093 6.63331 6.91402e-06 87.2828
1195 0.0109252 820.202 6.63898 6.91402e-06 87.2624
1196 0.0109321 820.31 6.64465 6.91402e-06 87.242
1197 0.010939 820.419 6.65032 6.91402e-06 87.2217
1198 0.0109459 820.527 6.656 6.91402e-06 87.2013
1199 0.0109528 820.635 6.66167 6.91402e-06 87.181
1200 0.0109598 820.743 6.66734 6.91402e-06 87.1607
1201 0.0109667 820.851 6.67302 6.91402e-06 87.1404
1202 0.0109736 820.959 6.67869 6.91402e-06 87.1201
1203 0.0109805 821.067 6.68437 6.91402e-06 87.0999
1204 0.0109874 821.175 6.69005 6.91402e-06 87.0796
1205 0.0109943 821.282 6.69573 6.91402e-06 87.0594
1206 0.0110012 821.39 6.7014 6.91402e-06 87.0392
1207 0.0110082 821.497 6.70708 6.91402e-06 87.019
1208 0.0110151 821.605 6.71276 6.91402e-06 86.9988
1209 0.011022 821.712 6.71845 6.91402e-06 86.9786
1210 0.0110289 821.819 6.72413 6.91402e-06 86.9585
1211 0.0110358 821.926 6.72981 6.91402e-06 86.9383
1212 0.0110427 822.033 6.73549 6.91402e-06 86.9182
1213 0.0110496 822.14 6.74118 6.91402e-06 86.8981
1214 0.0110566 822.247 6.74686 6.91402e-06 86.878
1215 0.0110635 822.354 6.75255 6.91402e-06 86.8579
1216 0.0110704 822.46 6.75823 6.91402e-06 86.8378
1217 0.0110773 822.567 6.76392 6.91402e-06 86.8178
1218 0.0110842 822.673 6.76961 6.91402e-06 86.7978
1219 0.0110911 822.78 6.7753 6.91402e-06 86.7777
1220 0.011098 822.886 6.78098 6.91402e-06 86.7577
1221 0.011105 822.992 6.78667 6.91402e-06 86.7377
1222 0.0111119 823.098 6.79237 6.91402e-06 86.7178
1223 0.0111188 823.204 6.79806 6.91402e-06 86.6978
1224 0.0111257 823.31 6.80375 6.91402e-06 86.6779
1225 0.0111326 823.416 6.80944 6.91402e-06 86.6579
1226 0.0111395 823.522 6.81513 6.91402e-06 86.638
1227 0.0111464 823.627 6.82083 6.91402e-06 86.6181
1228 0.0111534 823.733 6.82652 6.91402e-06 86.5982
1229 0.0111603 823.838 6.83222 6.91402e-06 86.5783
1230 0.0111672 823.944 6.83792 6.91402e-06 86.5585
1231 0.0111741 824.049 6.84361 6.91402e-06 86.5386
1232 0.011181 824.154 6.84931 6.91402e-06 86.5188
1233 0.0111879 824.26 6.85501 6.91402e-06 86.499
1234 0.0111948 824.365 6.86071 6.91402e-06 86.4792
1235 0.0112017 824.47 6.86641 6.91402e-06 86.4594
1236 0.0112087 824.574 6.87211 6.91402e-06 86.4396
1237 0.0112156 824.679 6.87781 6.91402e-06 86.4198
1238 0.0112225 824.784 6.88351 6.91402e-06 86.4001
1239 0.0112294 824.889 6.88922 6.91402e-06 86.3804
1240 0.0112363 824.993 6.89492 6.91402e-06 86.3607
1241 0.0112432 825.098 6.90062 6.91402e-06 86.3409
1242 0.0112501 825.202 6.90633 6.91402e-06 86.3213
1243 0.0112571 825.306 6.91204 6.91402e-06 86.3016
1244 0.011264 825.41 6.91774 6.91402e-06 86.2819
1245 0.0112709 825.515 6.92345 6.91402e-06 86.2623
1246 0.0112778 825.619 6.92916 6.91402e-06 86.2426
1247 0.0112847 825.723 6.93487 6.91402e-06 86.223
1248 0.0112916 825.826 6.94057 6.91402e-06 86.2034
1249 0.0112985 825.93 6.94629 6.91402e-06 86.1838
1250 0.0113055 826.034 6.952 6.91402e-06 86.1643
1251 0.0113124 826.137 6.95771 6.91402e-06 86.1447
1252 0.0113193 826.241 6.96342 6.91402e-06 86.1252
1253 0.0113262 826.344 6.96913 6.91402e-06 86.1056
1254 0.0113331 826.448 6.97485 6.91402e-06 86.0861
1255 0.01134 826.551 6.98056 6.91402e-06 86.0666
1256 0.0113469 826.654 6.98628 6.91402e-06 86.0471
1257 0.0113539 826.757 6.99199 6.91402e-06 86.0276
1258 0.0113608 826.86 6.99771 6.91402e-06 86.0082
1259 0.0113677 826.963 7.00343 6.91402e-06 85.9887
1260 0.0113746 827.066 7.00914 6.91402e-06 85.9693
1261 0.0113815 827.169 7.01486 6.91402e-06 85.9499
1262 0.0113884 827.271 7.02058 6.91402e-06 85.9304
1263 0.0113953 827.374 7.0263 6.91402e-06 85.911
1264 0.0114023 827.476 7.03202 6.91402e-06 85.8917
1265 0.0114092 827.579 7.03774 6.91402e-06 85.8723
1266 0.0114161 827.681 7.04347 6.91402e-06 85.8529
1267 0.011423 827.783 7.04919 6.91402e-06 85.8336
1268 0.0114299 827.886 7.05491 6.91402e-06 85.8143
1269 0.0114368 827.988 7.06064 6.91402e-06 85.795
1270 0.0114437 828.09 7.06636 6.91402e-06 85.7757
1271 0.0114507 828.192 7.07209 6.91402e-06 85.7564
1272 0.0114576 828.293 7.07781 6.91402e-06 85.7371
1273 0.0114645 828.395 7.08354 6.91402e-06 85.7179
1274 0.0114714 828.497 7.08927 6.91402e-06 85.6986
1275 0.0114783 828.598 7.095 6.91402e-06 85.6794
1276 0.0114852 828.7 7.10073 6.91402e-06 85.6602
1277 0.0114921 828.801 7.10646 6.91402e-06 85.641
1278 0.0114991 828.903 7.11219 6.91402e-06 85.6218
1279 0.011506 829.004 7.11792 6.91402e-06 85.6026
1280 0.0115129 829.105 7.12365 6.91402e-06 85.5834
1281 0.0115198 829.206 7.12938 6.91402e-06 85.5643
1282 0.0115267 829.307 7.13512 6.91402e-06 85.5451
1283 0.0115336 829.408 7.14085 6.91402e-06 85.526
1284 0.0115405 829.509 7.14659 6.91402e-06 85.5069
1285 0.0115475 829.61 7.15232 6.91402e-06 85.4878
1286 0.0115544 829.71 7.15806 6.91402e-06 85.4687
1287 0.0115613 829.811 7.1638 6.91402e-06 85.4497
1288 0.0115682 829.911 7.16953 6.91402e-06 85.4306
1289 0.0115751 830.012 7.17527 6.91402e-06 85.4116
1290 0.011582 830.112 7.18101 6.91402e-06 85.3925
1291 0.0115889 830.212 7.18675 6.91402e-06 85.3735
1292 0.0115958 830.313 7.19249 6.91402e-06 85.3545
1293 0.0116028 830.413 7.19823 6.91402e-06 85.3355
1294 0.0116097 830.513 7.20397 6.91402e-06 85.3165
1295 0.0116166 830.613 7.20972 7.60542e-06 85.2976
1296 0.0116242 830.722 7.21603 7.60542e-06 85.2767
1297 0.0116318 830.832 7.22235 7.60542e-06 85.2559
1298 0.0116394 830.942 7.22867 7.60542e-06 85.2351
1299 0.011647 831.051 7.23499 7.60542e-06 85.2143
1300 0.0116546 831.161 7.24131 7.60542e-06 85.1935
1301 0.0116622 831.27 7.24764 7.60542e-06 85.1727
1302 0.0116698 831.379 7.25396 7.60542e-06 85.152
1303 0.0116774 831.489 7.26028 7.60542e-06 85.1313
1304 0.011685 831.598 7.26661 7.60542e-06 85.1105
1305 0.0116926 831.707 7.27293 7.60542e-06 85.0898
1306 0.0117003 831.815 7.27926 7.60542e-06 85.0692
1307 0.0117079 831.924 7.28558 7.60542e-06 85.0485
1308 0.0117155 832.033 7.29191 7.60542e-06 85.0278
1309 0.0117231 832.141 7.29824 7.60542e-06 85.0072
1310 0.0117307 832.25 7.30457 7.60542e-06 84.9866
1311 0.0117383 832.358 7.3109 7.60542e-06 84.9659
1312 0.0117459 832.467 7.31723 7.60542e-06 84.9454
1313 0.0117535 832.575 7.32356 7.60542e-06 84.9248
1314 0.0117611 832.683 7.32989 7.60542e-06 84.9042
1315 0.0117687 832.791 7.33623 7.60542e-06 84.8837
1316 0.0117763 832.899 7.34256 7.60542e-06 84.8631
1317 0.0117839 833.007 7.3489 7.60542e-06 84.8426
1318 0.0117915 833.114 7.35523 7.60542e-06 84.8221
1319 0.0117991 833.222 7.36157 7.60542e-06 84.8016
1320 0.0118067 833.329 7.36791 7.60542e-06 84.7812
1321 0.0118143 833.437 7.37424 7.60542e-06 84.7607
1322 0.0118219 833.544 7.38058 7.60542e-06 84.7403
1323 0.0118295 833.651 7.38692 7.60542e-06 84.7198
1324 0.0118371 833.759 7.39326 7.60542e-06 84.6994
1325 0.0118448 833.866 7.3996 7.60542e-06 84.679
1326 0.0118524 833.973 7.40595 7.60542e-06 84.6587
1327 0.01186 834.079 7.41229 7.60542e-06 84.6383
1328 0.0118676 834.186 7.41863 7.60542e-06 84.6179
1329 0.0118752 834.293 7.42498 7.60542e-06 84.5976
1330 0.0118828 834.399 7.43132 7.60542e-06 84.5773
1331 0.0118904 834.506 7.43767 7.60542e-06 84.557
1332 0.011898 834.612 7.44402 7.60542e-06 84.5367
1333 0.0119056 834.718 7.45037 7.60542e-06 84.5164
1334 0.0119132 834.825 7.45671 7.60542e-06 84.4962
1335 0.0119208 834.931 7.46306 7.60542e-06 84.4759
1336 0.0119284 835.037 7.46941 7.60542e-06 84.4557
1337 0.011936 835.143 7.47577 7.60542e-06 84.4355
1338 0.0119436 835.249 7.48212 7.60542e-06 84.4153
1339 0.0119512 835.354 7.48847 7.60542e-06 84.3951
1340 0.0119588 835.46 7.49482 7.60542e-06 84.3749
1341 0.0119664 835.565 7.50118 7.60542e-06 84.3548
1342 0.011974 835.671 7.50753 7.60542e-06 84.3346
1343 0.0119817 835.776 7.51389 7.60542e-06 84.3145
1344 0.0119893 835.881 7.52025 7.60542e-06 84.2944
1345 0.0119969 835.987 7.5266 7.60542e-06 84.2743
1346 0.0120045 836.092 7.53296 7.60542e-06 84.2542
1347 0.0120121 836.197 7.53932 7.60542e-06 84.2342
1348 0.0120197 836.302 7.54568 7.60542e-06 84.2141
1349 0.0120273 836.406 7.55204 7.60542e-06 84.1941
1350 0.0120349 836.511 7.5584 7.60542e-06 84.1741
1351 0.0120425 836.616 7.56477 7.60542e-06 84.154
1352 0.0120501 836.72 7.57113 7.60542e-06 84.1341
1353 0.0120577 836.825 7.57749 7.60542e-06 84.1141
1354 0.0120653 836.929 7.58386 7.60542e-06 84.0941
1355 0.0120729 837.033 7.59022 7.60542e-06 84.0742
1356 0.0120805 837.137 7.59659 7.60542e-06 84.0542
1357 0.0120881 837.242 7.60296 7.60542e-06 84.0343
1358 0.0120957 837.345 7.60933 7.60542e-06 84.0144
1359 0.0121033 837.449 7.61569 7.60542e-06 83.9945
1360 0.0121109 837.553 7.62206 7.60542e-06 83.9746
1361 0.0121185 837.657 7.62843 7.60542e-06 83.9548
1362 0.0121262 837.76 7.63481 7.60542e-06 83.9349
1363 0.0121338 837.864 7.64118 7.60542e-06 83.9151
1364 0.0121414 837.967 7.64755 7.60542e-06 83.8953
1365 0.012149 838.071 7.65392 7.60542e-06 83.8755
1366 0.0121566 838.174 7.6603 7.60542e-06 83.8557
1367 0.0121642 838.277 7.66667 7.60542e-06 83.8359
1368 0.0121718 838.38 7.67305 7.60542e-06 83.8162
1369 0.0121794 838.483 7.67943 7.60542e-06 83.7964
1370 0.012187 838.586 7.6858 7.60542e-06 83.7767
1371 0.0121946 838.689 7.69218 7.60542e-06 83.757
1372 0.0122022 838.792 7.69856 7.60542e-06 83.7373
1373 0.0122098 838.894 7.70494 7.60542e-06 83.7176
1374 0.0122174 838.997 7.71132 7.60542e-06 83.6979
1375 0.012225 839.099 7.7177 7.60542e-06 83.6782
1376 0.0122326 839.202 7.72408 7.60542e-06 83.6586
1377 0.0122402 839.304 7.73047 7.60542e-06 83.6389
1378 0.0122478 839.406 7.73685 7.60542e-06 83.6193
1379 0.0122554 839.508 7.74323 7.60542e-06 83.5997
1380 0.0122631 839.61 7.74962 7.60542e-06 83.5801
1381 0.0122707 839.712 7.75601 7.60542e-06 83.5606
1382 0.0122783 839.814 7.76239 7.60542e-06 83.541
1383 0.0122859 839.916 7.76878 7.60542e-06 83.5214
1384 0.0122935 840.017 7.77517 7.60542e-06 83.5019
1385 0.0123011 840.119 7.78156 7.60542e-06 83.4824
1386 0.0123087 840.22 7.78795 7.60542e-06 83.4629
1387 0.0123163 840.322 7.79434 7.60542e-06 83.4434
1388 0.0123239 840.423 7.80073 7.60542e-06 83.4239
1389 0.0123315 840.524 7.80712 7.60542e-06 83.4044
1390 0.0123391 840.625 7.81351 7.60542e-06 83.385
1391 0.0123467 840.726 7.81991 7.60542e-06 83.3656
1392 0.0123543 840.827 7.8263 7.60542e-06 83.3461
1393 0.0123619 840.928 7.8327 7.60542e-06 83.3267
1394 0.0123695 841.029 7.83909 7.60542e-06 83.3073
1395 0.0123771 841.13 7.84549 7.60542e-06 83.2879
1396 0.0123847 841.23 7.85189 7.60542e-06 83.2686
1397 0.0123923 841.331 7.85829 7.60542e-06 83.2492
1398 0.0123999 841.431 7.86469 7.60542e-06 83.2299
1399 0.0124076 841.531 7.87109 7.60542e-06 83.2105
1400 0.0124152 841.632 7.87749 7.60542e-06 83.1912
1401 0.0124228 841.732 7.88389 7.60542e-06 83.1719
1402 0.0124304 841.832 7.89029 7.60542e-06 83.1526
1403 0.012438 841.932 7.89669 8.36596e-06 83.1334
1404 0.0124463 842.042 7.90374 8.36596e-06 83.1122
1405 0.0124547 842.151 7.91078 8.36596e-06 83.091
1406 0.0124631 842.261 7.91783 8.36596e-06 83.0699
1407 0.0124714 842.371 7.92487 8.36596e-06 83.0487
1408 0.0124798 842.48 7.93192 8.36596e-06 83.0276
1409 0.0124882 842.59 7.93897 8.36596e-06 83.0065
1410 0.0124965 842.699 7.94602 8.36596e-06 82.9854
1411 0.0125049 842.808 7.95307 8.36596e-06 82.9644
1412 0.0125133 842.917 7.96012 8.36596e-06 82.9433
1413 0.0125216 843.026 7.96717 8.36596e-06 82.9223
1414 0.01253 843.135 7.97423 8.36596e-06 82.9012
1415 0.0125384 843.244 7.98128 8.36596e-06 82.8802
1416 0.0125467 843.352 7.98834 8.36596e-06 82.8592
1417 0.0125551 843.461 7.99539 8.36596e-06 82.8383
1418 0.0125635 843.569 8.00245 8.36596e-06 82.8173
1419 0.0125718 843.677 8.00951 8.36596e-06 82.7964
1420 0.0125802 843.786 8.01657 8.36596e-06 82.7754
1421 0.0125886 843.894 8.02362 8.36596e-06 82.7545
1422 0.0125969 844.002 8.03069 8.36596e-06 82.7336
1423 0.0126053 844.11 8.03775 8.36596e-06 82.7128
1424 0.0126137 844.218 8.04481 8.36596e-06 82.6919
1425 0.012622 844.325 8.05187 8.36596e-06 82.6711
1426 0.0126304 844.433 8.05894 8.36596e-06 82.6502
1427 0.0126388 844.54 8.066 8.36596e-06 82.6294
1428 0.0126471 844.648 8.07307 8.36596e-06 82.6086
1429 0.0126555 844.755 8.08013 8.36596e-06 82.5878
1430 0.0126639 844.862 8.0872 8.36596e-06 82.5671
1431 0.0126722 844.97 8.09427 8.36596e-06 82.5463
1432 0.0126806 845.077 8.10134 8.36596e-06 82.5256
1433 0.012689 845.183 8.10841 8.36596e-06 82.5049
1434 0.0126973 845.29 8.11548 8.36596e-06 82.4842
1435 0.0127057 845.397 8.12255 8.36596e-06 82.4635
1436 0.0127141 845.504 8.12963 8.36596e-06 82.4428
1437 0.0127224 845.61 8.1367 8.36596e-06 82.4222
1438 0.0127308 845.716 8.14377 8.36596e-06 82.4015
1439 0.0127392 845.823 8.15085 8.36596e-06 82.3809
1440 0.0127475 845.929 8.15793 8.36596e-06 82.3603
1441 0.0127559 846.035 8.165 8.36596e-06 82.3397
1442 0.0127642 846.141 8.17208 8.36596e-06 82.3191
1443 0.0127726 846.247 8.17916 8.36596e-06 82.2986
1444 0.012781 846.353 8.18624 8.36596e-06 82.278
1445 0.0127893 846.459 8.19332 8.36596e-06 82.2575
1446 0.0127977 846.564 8.2004 8.36596e-06 82.237
1447 0.0128061 846.67 8.20749 8.36596e-06 82.2165
1448 0.0128144 846.775 8.21457 8.36596e-06 82.196
1449 0.0128228 846.88 8.22166 8.36596e-06 82.1755
1450 0.0128312 846.986 8.22874 8.36596e-06 82.1551
1451 0.0128395 847.091 8.23583 8.36596e-06 82.1346
1452 0.0128479 847.196 8.24291 8.36596e-06 82.1142
1453 0.0128563 847.301 8.25 8.36596e-06 82.0938
1454 0.0128646 847.405 8.25709 8.36596e-06 82.0734
1455 0.012873 847.51 8.26418 8.36596e-06 82.053
1456 0.0128814 847.615 8.27127 8.36596e-06 82.0327
1457 0.0128897 847.719 8.27836 8.36596e-06 82.0123
1458 0.0128981 847.824 8.28546 8.36596e-06 81.992
1459 0.0129065 847.928 8.29255 8.36596e-06 81.9717
1460 0.0129148 848.032 8.29964 8.36596e-06 81.9514
1461 0.0129232 848.137 8.30674 8.36596e-06 81.9311
1462 0.0129316 848.241 8.31383 8.36596e-06 81.9108
1463 0.0129399 848.345 8.32093 8.36596e-06 81.8905
1464 0.0129483 848.448 8.32803 8.36596e-06 81.8703
1465 0.0129567 848.552 8.33513 8.36596e-06 81.8501
1466 0.012965 848.656 8.34223 8.36596e-06 81.8299
1467 0.0129734 848.759 8.34933 8.36596e-06 81.8097
1468 0.0129818 848.863 8.35643 8.36596e-06 81.7895
1469 0.0129901 848.966 8.36353 8.36596e-06 81.7693
1470 0.0129985 849.069 8.37063 8.36596e-06 81.7492
1471 0.0130069 849.173 8.37774 8.36596e-06 81.729
1472 0.0130152 849.276 8.38484 8.36596e-06 81.7089
1473 0.0130236 849.379 8.39195 8.36596e-06 81.6888
1474 0.013032 849.482 8.39905 8.36596e-06 81.6687
1475 0.0130403 849.584 8.40616 8.36596e-06 81.6487
1476 0.0130487 849.687 8.41327 8.36596e-06 81.6286
1477 0.0130571 849.79 8.42038 8.36596e-06 81.6085
1478 0.0130654 849.892 8.42749 8.36596e-06 81.5885
1479 0.0130738 849.995 8.4346 8.36596e-06 81.5685
1480 0.0130822 850.097 8.44171 8.36596e-06 81.5485
1481 0.0130905 850.199 8.44882 8.36596e-06 81.5285
1482 0.0130989 850.301 8.45593 8.36596e-06 81.5085
1483 0.0131073 850.403 8.46305 8.36596e-06 81.4886
1484 0.0131156 850.505 8.47016 8.36596e-06 81.4686
1485 0.013124 850.607 8.47728 8.36596e-06 81.4487
1486 0.0131324 850.709 8.4844 8.36596e-06 81.4288
1487 0.0131407 850.81 8.49151 8.36596e-06 81.4089
1488 0.0131491 850.912 8.49863 8.36596e-06 81.389
1489 0.0131574 851.013 8.50575 8.36596e-06 81.3691
1490 0.0131658 851.115 8.51287 8.36596e-06 81.3493
1491 0.0131742 851.216 8.51999 8.36596e-06 81.3294
1492 0.0131825 851.317 8.52711 8.36596e-06 81.3096
1493 0.0131909 851.418 8.53423 8.36596e-06 81.2898
1494 0.0131993 851.519 8.54136 8.36596e-06 81.27
1495 0.0132076 851.62 8.54848 8.36596e-06 81.2502
1496 0.013216 851.721 8.55561 8.36596e-06 81.2304
1497 0.0132244 851.822 8.56273 8.36596e-06 81.2107
1498 0.0132327 851.922 8.56986 8.36596e-06 81.191
1499 0.0132411 852.023 8.57699 8.36596e-06 81.1712
1500 0.0132495 852.123 8.58412 8.36596e-06 81.1515
1501 0.0132578 852.224 8.59125 8.36596e-06 81.1318
1502 0.0132662 852.324 8.59838 8.36596e-06 81.1121
1503 0.0132746 852.424 8.60551 8.36596e-06 81.0925
1504 0.0132829 852.524 8.61264 8.36596e-06 81.0728
1505 0.0132913 852.624 8.61977 9.20256e-06 81.0532
1506 0.0133005 852.734 8.62762 9.20256e-06 81.0316
1507 0.0133097 852.844 8.63547 9.20256e-06 81.01
1508 0.0133189 852.954 8.64331 9.20256e-06 80.9885
1509 0.0133281 853.063 8.65116 9.20256e-06 80.9669
1510 0.0133373 853.173 8.65902 9.20256e-06 80.9454
1511 0.0133465 853.282 8.66687 9.20256e-06 80.9239
1512 0.0133557 853.391 8.67472 9.20256e-06 80.9024
1513 0.0133649 853.5 8.68257 9.20256e-06 80.881
1514 0.0133741 853.609 8.69043 9.20256e-06 80.8595
1515 0.0133833 853.718 8.69828 9.20256e-06 80.8381
1516 0.0133925 853.827 8.70614 9.20256e-06 80.8167
1517 0.0134017 853.935 8.714 9.20256e-06 80.7953
1518 0.0134109 854.044 8.72186 9.20256e-06 80.7739
1519 0.0134201 854.152 8.72972 9.20256e-06 80.7525
1520 0.0134293 854.261 8.73758 9.20256e-06 80.7312
1521 0.0134385 854.369 8.74544 9.20256e-06 80.7098
1522 0.0134477 854.477 8.7533 9.20256e-06 80.6885
1523 0.0134569 854.585 8.76117 9.20256e-06 80.6672
1524 0.0134662 854.693 8.76903 9.20256e-06 80.6459
1525 0.0134754 854.801 8.7769 9.20256e-06 80.6247
1526 0.0134846 854.908 8.78477 9.20256e-06 80.6034
1527 0.0134938 855.016 8.79263 9.20256e-06 80.5822
1528 0.013503 855.123 8.8005 9.20256e-06 80.561
1529 0.0135122 855.231 8.80837 9.20256e-06 80.5398
1530 0.0135214 855.338 8.81624 9.20256e-06 80.5186
1531 0.0135306 855.445 8.82411 9.20256e-06 80.4974
1532 0.0135398 855.552 8.83199 9.20256e-06 80.4763
1533 0.013549 855.659 8.83986 9.20256e-06 80.4552
1534 0.0135582 855.766 8.84774 9.20256e-06 80.434
1535 0.0135674 855.873 8.85561 9.20256e-06 80.4129
1536 0.0135766 855.979 8.86349 9.20256e-06 80.3919
1537 0.0135858 856.086 8.87137 9.20256e-06 80.3708
1538 0.013595 856.192 8.87924 9.20256e-06 80.3497
1539 0.0136042 856.298 8.88712 9.20256e-06 80.3287
1540 0.0136134 856.405 8.895 9.20256e-06 80.3077
1541 0.0136226 856.511 8.90289 9.20256e-06 80.2867
1542 0.0136318 856.617 8.91077 9.20256e-06 80.2657
1543 0.013641 856.722 8.91865 9.20256e-06 80.2448
1544 0.0136502 856.828 8.92654 9.20256e-06 80.2238
1545 0.0136594 856.934 8.93442 9.20256e-06 80.2029
1546 0.0136686 857.039 8.94231 9.20256e-06 80.1819
1547 0.0136778 857.145 8.9502 9.20256e-06 80.161
1548 0.013687 857.25 8.95808 9.20256e-06 80.1402
1549 0.0136962 857.355 8.96597 9.20256e-06 80.1193
1550 0.0137054 857.461 8.97386 9.20256e-06 80.0984
1551 0.0137146 857.566 8.98176 9.20256e-06 80.0776
1552 0.0137238 857.67 8.98965 9.20256e-06 80.0568
1553 0.013733 857.775 8.99754 9.20256e-06 80.036
1554 0.0137422 857.88 9.00544 9.20256e-06 80.0152
1555 0.0137514 857.985 9.01333 9.20256e-06 79.9944
1556 0.0137606 858.089 9.02123 9.20256e-06 79.9737
1557 0.0137698 858.193 9.02912 9.20256e-06 79.9529
1558 0.013779 858.298 9.03702 9.20256e-06 79.9322
1559 0.0137882 858.402 9.04492 9.20256e-06 79.9115
1560 0.0137974 858.506 9.05282 9.20256e-06 79.8908
1561 0.0138066 858.61 9.06072 9.20256e-06 79.8701
1562 0.0138158 858.714 9.06862 9.20256e-06 79.8495
1563 0.0138251 858.818 9.07653 9.20256e-06 79.8288
1564 0.0138343 858.921 9.08443 9.20256e-06 79.8082
1565 0.0138435 859.025 9.09233 9.20256e-06 79.7876
1566 0.0138527 859.128 9.10024 9.20256e-06 79.767
1567 0.0138619 859.232 9.10815 9.20256e-06 79.7464
1568 0.0138711 859.335 9.11605 9.20256e-06 79.7258
1569 0.0138803 859.438 9.12396 9.20256e-06 79.7053
1570 0.0138895 859.541 9.13187 9.20256e-06 79.6847
1571 0.0138987 859.644 9.13978 9.20256e-06 79.6642
1572 0.0139079 859.747 9.14769 9.20256e-06 79.6437
1573 0.0139171 859.85 9.15561 9.20256e-06 79.6232
1574 0.0139263 859.952 9.16352 9.20256e-06 79.6028
1575 0.0139355 860.055 9.17143 9.20256e-06 79.5823
1576 0.0139447 860.157 9.17935 9.20256e-06 79.5619
1577 0.0139539 860.26 9.18727 9.20256e-06 79.5414
1578 0.0139631 860.362 9.19518 9.20256e-06 79.521
1579 0.0139723 860.464 9.2031 9.20256e-06 79.5006
1580 0.0139815 860.566 9.21102 9.20256e-06 79.4803
1581 0.0139907 860.668 9.21894 9.20256e-06 79.4599
1582 0.0139999 860.77 9.22686 9.20256e-06 79.4396
1583 0.0140091 860.872 9.23478 9.20256e-06 79.4192
1584 0.0140183 860.973 9.24271 9.20256e-06 79.3989
1585 0.0140275 861.075 9.25063 9.20256e-06 79.3786
1586 0.0140367 861.176 9.25855 9.20256e-06 79.3583
1587 0.0140459 861.277 9.26648 9.20256e-06 79.3381
1588 0.0140551 861.379 9.27441 9.20256e-06 79.3178
1589 0.0140643 861.48 9.28233 9.20256e-06 79.2976
1590 0.0140735 861.581 9.29026 9.20256e-06 79.2773
1591 0.0140827 861.682 9.29819 9.20256e-06 79.2571
1592 0.0140919 861.783 9.30612 9.20256e-06 79.2369
1593 0.0141011 861.883 9.31405 9.20256e-06 79.2168
1594 0.0141103 861.984 9.32198 9.20256e-06 79.1966
1595 0.0141195 862.085 9.32992 9.20256e-06 79.1764
1596 0.0141287 862.185 9.33785 9.20256e-06 79.1563
1597 0.0141379 862.285 9.34578 9.20256e-06 79.1362
1598 0.0141471 862.386 9.35372 9.20256e-06 79.1161
1599 0.0141563 862.486 9.36166 9.20256e-06 79.096
1600 0.0141655 862.586 9.36959 9.20256e-06 79.0759
1601 0.0141747 862.686 9.37753 1.01228e-05 79.0559
1602 0.0141849 862.796 9.38627 1.01228e-05 79.0338
1603 0.014195 862.905 9.395 1.01228e-05 79.0118
1604 0.0142051 863.015 9.40374 1.01228e-05 78.9898
1605 0.0142152 863.124 9.41247 1.01228e-05 78.9678
1606 0.0142254 863.234 9.42121 1.01228e-05 78.9458
1607 0.0142355 863.343 9.42995 1.01228e-05 78.9239
1608 0.0142456 863.452 9.43869 1.01228e-05 78.902
1609 0.0142557 863.561 9.44743 1.01228e-05 78.88
1610 0.0142659 863.67 9.45617 1.01228e-05 78.8581
1611 0.014276 863.779 9.46492 1.01228e-05 78.8363
1612 0.0142861 863.887 9.47366 1.01228e-05 78.8144
1613 0.0142962 863.996 9.48241 1.01228e-05 78.7925
1614 0.0143063 864.104 9.49115 1.01228e-05 78.7707
1615 0.0143165 864.213 9.4999 1.01228e-05 78.7489
1616 0.0143266 864.321 9.50865 1.01228e-05 78.7271
1617 0.0143367 864.429 9.5174 1.01228e-05 78.7053
1618 0.0143468 864.537 9.52615 1.01228e-05 78.6836
1619 0.014357 864.645 9.5349 1.01228e-05 78.6618
1620 0.0143671 864.752 9.54366 1.01228e-05 78.6401
1621 0.0143772 864.86 9.55241 1.01228e-05 78.6184
1622 0.0143873 864.967 9.56117 1.01228e-05 78.5967
1623 0.0143975 865.075 9.56992 1.01228e-05 78.5751
1624 0.0144076 865.182 9.57868 1.01228e-05 78.5534
1625 0.0144177 865.289 9.58744 1.01228e-05 78.5318
1626 0.0144278 865.396 9.5962 1.01228e-05 78.5102
1627 0.0144379 865.503 9.60496 1.01228e-05 78.4886
1628 0.0144481 865.61 9.61372 1.01228e-05 78.467
1629 0.0144582 865.717 9.62248 1.01228e-05 78.4454
1630 0.0144683 865.823 9.63125 1.01228e-05 78.4239
1631 0.0144784 865.93 9.64001 1.01228e-05 78.4024
1632 0.0144886 866.036 9.64878 1.01228e-05 78.3809
1633 0.0144987 866.142 9.65755 1.01228e-05 78.3594
1634 0.0145088 866.248 9.66631 1.01228e-05 78.3379
1635 0.0145189 866.354 9.67508 1.01228e-05 78.3164
1636 0.014529 866.46 9.68385 1.01228e-05 78.295
1637 0.0145392 866.566 9.69263 1.01228e-05 78.2736
1638 0.0145493 866.672 9.7014 1.01228e-05 78.2522
1639 0.0145594 866.777 9.71017 1.01228e-05 78.2308
1640 0.0145695 866.883 9.71895 1.01228e-05 78.2094
1641 0.0145797 866.988 9.72772 1.01228e-05 78.1881
1642 0.0145898 867.093 9.7365 1.01228e-05 78.1667
1643 0.0145999 867.198 9.74528 1.01228e-05 78.1454
1644 0.01461 867.303 9.75406 1.01228e-05 78.1241
1645 0.0146202 867.408 9.76284 1.01228e-05 78.1028
1646 0.0146303 867.513 9.77162 1.01228e-05 78.0815
1647 0.0146404 867.618 9.7804 1.01228e-05 78.0603
1648 0.0146505 867.722 9.78918 1.01228e-05 78.0391
1649 0.0146606 867.827 9.79797 1.01228e-05 78.0178
1650 0.0146708 867.931 9.80675 1.01228e-05 77.9966
1651 0.0146809 868.035 9.81554 1.01228e-05 77.9755
1652 0.014691 868.139 9.82433 1.01228e-05 77.9543
1653 0.0147011 868.243 9.83312 1.01228e-05 77.9332
1654 0.0147113 868.347 9.8419 1.01228e-05 77.912
1655 0.0147214 868.451 9.8507 1.01228e-05 77.8909
1656 0.0147315 868.555 9.85949 1.01228e-05 77.8698
1657 0.0147416 868.658 9.86828 1.01228e-05 77.8487
1658 0.0147517 868.762 9.87707 1.01228e-05 77.8277
1659 0.0147619 868.865 9.88587 1.01228e-05 77.8066
1660 0.014772 868.968 9.89466 1.01228e-05 77.7856
1661 0.0147821 869.071 9.90346 1.01228e-05 77.7646
1662 0.0147922 869.174 9.91226 1.01228e-05 77.7436
1663 0.0148024 869.277 9.92106 1.01228e-05 77.7226
1664 0.0148125 869.38 9.92986 1.01228e-05 77.7016
1665 0.0148226 869.483 9.93866 1.01228e-05 77.6807
1666 0.0148327 869.585 9.94746 1.01228e-05 77.6598
1667 0.0148429 869.688 9.95626 1.01228e-05 77.6388
1668 0.014853 869.79 9.96507 1.01228e-05 77.618
1669 0.0148631 869.893 9.97387 1.01228e-05 77.5971
1670 0.0148732 869.995 9.98268 1.01228e-05 77.5762
1671 0.0148833 870.097 9.99149 1.01228e-05 77.5554
1672 0.0148935 870.199 10.0003 1.01228e-05 77.5345
1673 0.0149036 870.3 10.0091 1.01228e-05 77.5137
1674 0.0149137 870.402 10.0179 1.01228e-05 77.4929
1675 0.0149238 870.504 10.0267 1.01228e-05 77.4721
1676 0.014934 870.605 10.0355 1.01228e-05 77.4514
1677 0.0149441 870.707 10.0444 1.01228e-05 77.4306
1678 0.0149542 870.808 10.0532 1.01228e-05 77.4099
1679 0.0149643 870.909 10.062 1.01228e-05 77.3892
1680 0.0149745 871.01 10.0708 1.01228e-05 77.3685
1681 0.0149846 871.111 10.0796 1.01228e-05 77.3478
1682 0.0149947 871.212 10.0884 1.01228e-05 77.3271
1683 0.0150048 871.313 10.0973 1.01228e-05 77.3065
1684 0.0150149 871.413 10.1061 1.01228e-05 77.2859
1685 0.0150251 871.514 10.1149 1.01228e-05 77.2652
1686 0.0150352 871.614 10.1237 1.01228e-05 77.2446
1687 0.0150453 871.715 10.1325 1.01228e-05 77.2241
1688 0.0150554 871.815 10.1414 1.01228e-05 77.2035
1689 0.0150656 871.915 10.1502 1.01228e-05 77.1829
1690 0.0150757 872.015 10.159 1.01228e-05 77.1624
1691 0.0150858 872.115 10.1678 1.11351e-05 77.1419
1692 0.0150969 872.225 10.1776 1.11351e-05 77.1193
1693 0.0151081 872.335 10.1873 1.11351e-05 77.0968
1694 0.0151192 872.444 10.197 1.11351e-05 77.0743
1695 0.0151303 872.553 10.2067 1.11351e-05 77.0518
1696 0.0151415 872.663 10.2164 1.11351e-05 77.0293
1697 0.0151526 872.772 10.2261 1.11351e-05 77.0068
1698 0.0151637 872.881 10.2359 1.11351e-05 76.9844
1699 0.0151749 872.99 10.2456 1.11351e-05 76.962
1700 0.015186 873.099 10.2553 1.11351e-05 76.9396
1701 0.0151972 873.207 10.265 1.11351e-05 76.9172
1702 0.0152083 873.316 10.2747 1.11351e-05 76.8949
1703 0.0152194 873.424 10.2845 1.11351e-05 76.8725
1704 0.0152306 873.533 10.2942 1.11351e-05 76.8502
1705 0.0152417 873.641 10.3039 1.11351e-05 76.8279
1706 0.0152528 873.749 10.3137 1.11351e-05 76.8056
1707 0.015264 873.857 10.3234 1.11351e-05 76.7833
1708 0.0152751 873.964 10.3331 1.11351e-05 76.7611
1709 0.0152862 874.072 10.3428 1.11351e-05 76.7389
1710 0.0152974 874.18 10.3526 1.11351e-05 76.7167
1711 0.0153085 874.287 10.3623 1.11351e-05 76.6945
1712 0.0153196 874.394 10.372 1.11351e-05 76.6723
1713 0.0153308 874.502 10.3818 1.11351e-05 76.6502
1714 0.0153419 874.609 10.3915 1.11351e-05 76.628
1715 0.015353 874.716 10.4013 1.11351e-05 76.6059
1716 0.0153642 874.822 10.411 1.11351e-05 76.5838
1717 0.0153753 874.929 10.4207 1.11351e-05 76.5617
1718 0.0153864 875.036 10.4305 1.11351e-05 76.5397
1719 0.0153976 875.142 10.4402 1.11351e-05 76.5176
1720 0.0154087 875.248 10.45 1.11351e-05 76.4956
1721 0.0154199 875.355 10.4597 1.11351e-05 76.4736
1722 0.015431 875.461 10.4695 1.11351e-05 76.4516
1723 0.0154421 875.567 10.4792 1.11351e-05 76.4297
1724 0.0154533 875.672 10.489 1.11351e-05 76.4077
1725 0.0154644 875.778 10.4987 1.11351e-05 76.3858
1726 0.0154755 875.884 10.5085 1.11351e-05 76.3639
1727 0.0154867 875.989 10.5182 1.11351e-05 76.342
1728 0.0154978 876.095 10.528 1.11351e-05 76.3201
1729 0.0155089 876.2 10.5377 1.11351e-05 76.2983
1730 0.0155201 876.305 10.5475 1.11351e-05 76.2764
1731 0.0155312 876.41 10.5573 1.11351e-05 76.2546
1732 0.0155423 876.515 10.567 1.11351e-05 76.2328
1733 0.0155535 876.62 10.5768 1.11351e-05 76.2111
1734 0.0155646 876.724 10.5865 1.11351e-05 76.1893
1735 0.0155757 876.829 10.5963 1.11351e-05 76.1676
1736 0.0155869 876.933 10.6061 1.11351e-05 76.1458
1737 0.015598 877.037 10.6158 1.11351e-05 76.1241
1738 0.0156092 877.142 10.6256 1.11351e-05 76.1024
1739 0.0156203 877.246 10.6354 1.11351e-05 76.0808
1740 0.0156314 877.35 10.6451 1.11351e-05 76.0591
1741 0.0156426 877.453 10.6549 1.11351e-05 76.0375
1742 0.0156537 877.557 10.6647 1.11351e-05 76.0159
1743 0.0156648 877.661 10.6744 1.11351e-05 75.9943
1744 0.015676 877.764 10.6842 1.11351e-05 75.9727
1745 0.0156871 877.867 10.694 1.11351e-05 75.9511
1746 0.0156982 877.971 10.7038 1.11351e-05 75.9296
1747 0.0157094 878.074 10.7135 1.11351e-05 75.9081
1748 0.0157205 878.177 10.7233 1.11351e-05 75.8866
1749 0.0157316 878.28 10.7331 1.11351e-05 75.8651
1750 0.0157428 878.382 10.7429 1.11351e-05 75.8436
1751 0.0157539 878.485 10.7527 1.11351e-05 75.8221
1752 0.015765 878.588 10.7624 1.11351e-05 75.8007
1753 0.0157762 878.69 10.7722 1.11351e-05 75.7793
1754 0.0157873 878.792 10.782 1.11351e-05 75.7579
1755 0.0157984 878.895 10.7918 1.11351e-05 75.7365
1756 0.0158096 878.997 10.8016 1.11351e-05 75.7151
1757 0.0158207 879.099 10.8114 1.11351e-05 75.6938
1758 0.0158319 879.2 10.8212 1.11351e-05 75.6725
1759 0.015843 879.302 10.831 1.11351e-05 75.6512
1760 0.0158541 879.404 10.8408 1.11351e-05 75.6299
1761 0.0158653 879.505 10.8505 1.11351e-05 75.6086
1762 0.0158764 879.607 10.8603 1.11351e-05 75.5873
1763 0.0158875 879.708 10.8701 1.11351e-05 75.5661
1764 0.0158987 879.809 10.8799 1.11351e-05 75.5449
1765 0.0159098 879.91 10.8897 1.11351e-05 75.5237
1766 0.0159209 880.011 10.8995 1.11351e-05 75.5025
1767 0.0159321 880.112 10.9093 1.11351e-05 75.4813
1768 0.0159432 880.213 10.9191 1.11351e-05 75.4602
1769 0.0159543 880.313 10.9289 1.11351e-05 75.439
1770 0.0159655 880.414 10.9387 1.11351e-05 75.4179
1771 0.0159766 880.514 10.9485 1.11351e-05 75.3968
1772 0.0159877 880.614 10.9583 1.11351e-05 75.3757
1773 0.0159989 880.715 10.9681 1.11351e-05 75.3547
1774 0.01601 880.815 10.978 1.11351e-05 75.3336
1775 0.0160212 880.914 10.9878 1.22486e-05 75.3126
1776 0.0160334 881.024 10.9986 1.22486e-05 75.2895
1777 0.0160456 881.134 11.0093 1.22486e-05 75.2664
1778 0.0160579 881.243 11.0201 1.22486e-05 75.2433
1779 0.0160701 881.353 11.0309 1.22486e-05 75.2203
1780 0.0160824 881.462 11.0417 1.22486e-05 75.1972
1781 0.0160946 881.571 11.0525 1.22486e-05 75.1742
1782 0.0161069 881.68 11.0633 1.22486e-05 75.1512
1783 0.0161191 881.789 11.0741 1.22486e-05 75.1283
1784 0.0161314 881.898 11.0849 1.22486e-05 75.1053
1785 0.0161436 882.006 11.0957 1.22486e-05 75.0824
1786 0.0161559 882.115 11.1065 1.22486e-05 75.0595
1787 0.0161681 882.223 11.1173 1.22486e-05 75.0366
1788 0.0161804 882.331 11.1281 1.22486e-05 75.0137
1789 0.0161926 882.439 11.139 1.22486e-05 74.9909
1790 0.0162049 882.547 11.1498 1.22486e-05 74.9681
1791 0.0162171 882.655 11.1606 1.22486e-05 74.9453
1792 0.0162294 882.763 11.1714 1.22486e-05 74.9225
1793 0.0162416 882.87 11.1822 1.22486e-05 74.8997
1794 0.0162539 882.978 11.193 1.22486e-05 74.877
1795 0.0162661 883.085 11.2038 1.22486e-05 74.8542
1796 0.0162784 883.192 11.2146 1.22486e-05 74.8315
1797 0.0162906 883.299 11.2255 1.22486e-05 74.8089
1798 0.0163029 883.406 11.2363 1.22486e-05 74.7862
1799 0.0163151 883.513 11.2471 1.22486e-05 74.7636
1800 0.0163274 883.619 11.2579 1.22486e-05 74.7409
1801 0.0163396 883.726 11.2688 1.22486e-05 74.7183
1802 0.0163519 883.832 11.2796 1.22486e-05 74.6958
1803 0.0163641 883.938 11.2904 1.22486e-05 74.6732
1804 0.0163764 884.044 11.3012 1.22486e-05 74.6507
1805 0.0163886 884.15 11.3121 1.22486e-05 74.6281
1806 0.0164009 884.256 11.3229 1.22486e-05 74.6056
1807 0.0164131 884.362 11.3337 1.22486e-05 74.5832
1808 0.0164254 884.467 11.3446 1.22486e-05 74.5607
1809 0.0164376 884.573 11.3554 1.22486e-05 74.5383
1810 0.0164499 884.678 11.3662 1.22486e-05 74.5158
1811 0.0164621 884.783 11.3771 1.22486e-05 74.4934
1812 0.0164743 884.888 11.3879 1.22486e-05 74.4711
1813 0.0164866 884.993 11.3987 1.22486e-05 74.4487
1814 0.0164988 885.098 11.4096 1.22486e-05 74.4263
1815 0.0165111 885.203 11.4204 1.22486e-05 74.404
1816 0.0165233 885.307 11.4313 1.22486e-05 74.3817
1817 0.0165356 885.412 11.4421 1.22486e-05 74.3594
1818 0.0165478 885.516 11.453 1.22486e-05 74.3372
1819 0.0165601 885.62 11.4638 1.22486e-05 74.3149
1820 0.0165723 885.724 11.4746 1.22486e-05 74.2927
1821 0.0165846 885.828 11.4855 1.22486e-05 74.2705
1822 0.0165968 885.932 11.4963 1.22486e-05 74.2483
1823 0.0166091 886.036 11.5072 1.22486e-05 74.2262
1824 0.0166213 886.139 11.5181 1.22486e-05 74.204
1825 0.0166336 886.243 11.5289 1.22486e-05 74.1819
1826 0.0166458 886.346 11.5398 1.22486e-05 74.1598
1827 0.0166581 886.449 11.5506 1.22486e-05 74.1377
1828 0.0166703 886.552 11.5615 1.22486e-05 74.1156
1829 0.0166826 886.655 11.5723 1.22486e-05 74.0936
1830 0.0166948 886.758 11.5832 1.22486e-05 74.0716
1831 0.0167071 886.861 11.5941 1.22486e-05 74.0495
1832 0.0167193 886.963 11.6049 1.22486e-05 74.0276
1833 0.0167316 887.066 11.6158 1.22486e-05 74.0056
1834 0.0167438 887.168 11.6267 1.22486e-05 73.9836
1835 0.0167561 887.27 11.6375 1.22486e-05 73.9617
1836 0.0167683 887.372 11.6484 1.22486e-05 73.9398
1837 0.0167806 887.474 11.6593 1.22486e-05 73.9179
1838 0.0167928 887.576 11.6701 1.22486e-05 73.896
1839 0.0168051 887.678 11.681 1.22486e-05 73.8742
1840 0.0168173 887.779 11.6919 1.22486e-05 73.8523
1841 0.0168296 887.881 11.7028 1.22486e-05 73.8305
1842 0.0168418 887.982 11.7136 1.22486e-05 73.8087
1843 0.0168541 888.083 11.7245 1.22486e-05 73.7869
1844 0.0168663 888.184 11.7354 1.22486e-05 73.7652
1845 0.0168786 888.285 11.7463 1.22486e-05 73.7434
1846 0.0168908 888.386 11.7571 1.22486e-05 73.7217
1847 0.016903 888.487 11.768 1.22486e-05 73.7
1848 0.0169153 888.587 11.7789 1.22486e-05 73.6783
1849 0.0169275 888.688 11.7898 1.22486e-05 73.6567
1850 0.0169398 888.788 11.8007 1.22486e-05 73.635
1851 0.016952 888.889 11.8116 1.22486e-05 73.6134
1852 0.0169643 888.989 11.8225 1.22486e-05 73.5918
1853 0.0169765 889.089 11.8333 1.22486e-05 73.5702
1854 0.0169888 889.189 11.8442 1.34735e-05 73.5486
1855 0.0170023 889.298 11.8562 1.34735e-05 73.5249
1856 0.0170157 889.408 11.8682 1.34735e-05 73.5012
1857 0.0170292 889.517 11.8802 1.34735e-05 73.4775
1858 0.0170427 889.627 11.8922 1.34735e-05 73.4539
1859 0.0170562 889.736 11.9042 1.34735e-05 73.4303
1860 0.0170696 889.845 11.9161 1.34735e-05 73.4067
1861 0.0170831 889.954 11.9281 1.34735e-05 73.3831
1862 0.0170966 890.062 11.9401 1.34735e-05 73.3596
1863 0.0171101 890.171 11.9521 1.34735e-05 73.336
1864 0.0171235 890.279 11.9641 1.34735e-05 73.3125
1865 0.017137 890.388 11.9761 1.34735e-05 73.2891
1866 0.0171505 890.496 11.9881 1.34735e-05 73.2656
1867 0.0171639 890.604 12.0001 1.34735e-05 73.2421
1868 0.0171774 890.712 12.0121 1.34735e-05 73.2187
1869 0.0171909 890.82 12.0241 1.34735e-05 73.1953
1870 0.0172044 890.927 12.0361 1.34735e-05 73.172
1871 0.0172178 891.035 12.0481 1.34735e-05 73.1486
1872 0.0172313 891.142 12.0601 1.34735e-05 73.1253
1873 0.0172448 891.249 12.0721 1.34735e-05 73.102
1874 0.0172583 891.356 12.0841 1.34735e-05 73.0787
1875 0.0172717 891.463 12.0961 1.34735e-05 73.0554
1876 0.0172852 891.57 12.1082 1.34735e-05 73.0322
1877 0.0172987 891.677 12.1202 1.34735e-05 73.009
1878 0.0173122 891.783 12.1322 1.34735e-05 72.9858
1879 0.0173256 891.889 12.1442 1.34735e-05 72.9626
1880 0.0173391 891.996 12.1562 1.34735e-05 72.9394
1881 0.0173526 892.102 12.1682 1.34735e-05 72.9163
1882 0.017366 892.208 12.1803 1.34735e-05 72.8932
1883 0.0173795 892.313 12.1923 1.34735e-05 72.8701
1884 0.017393 892.419 12.2043 1.34735e-05 72.847
1885 0.0174065 892.525 12.2163 1.34735e-05 72.824
1886 0.0174199 892.63 12.2284 1.34735e-05 72.801
1887 0.0174334 892.735 12.2404 1.34735e-05 72.778
1888 0.0174469 892.84 12.2524 1.34735e-05 72.755
1889 0.0174604 892.945 12.2644 1.34735e-05 72.732
1890 0.0174738 893.05 12.2765 1.34735e-05 72.7091
1891 0.0174873 893.155 12.2885 1.34735e-05 72.6862
1892 0.0175008 893.259 12.3005 1.34735e-05 72.6633
1893 0.0175143 893.364 12.3126 1.34735e-05 72.6404
1894 0.0175277 893.468 12.3246 1.34735e-05 72.6175
1895 0.0175412 893.572 12.3367 1.34735e-05 72.5947
1896 0.0175547 893.676 12.3487 1.34735e-05 72.5719
1897 0.0175681 893.78 12.3607 1.34735e-05 72.5491
1898 0.0175816 893.884 12.3728 1.34735e-05 72.5263
1899 0.0175951 893.988 12.3848 1.34735e-05 72.5036
1900 0.0176086 894.091 12.3969 1.34735e-05 72.4809
1901 0.017622 894.194 12.4089 1.34735e-05 72.4582
1902 0.0176355 894.298 12.421 1.34735e-05 72.4355
1903 0.017649 894.401 12.433 1.34735e-05 72.4128
1904 0.0176625 894.504 12.4451 1.34735e-05 72.3902
1905 0.0176759 894.607 12.4571 1.34735e-05 72.3675
1906 0.0176894 894.709 12.4692 1.34735e-05 72.3449
1907 0.0177029 894.812 12.4812 1.34735e-05 72.3224
1908 0.0177164 894.914 12.4933 1.34735e-05 72.2998
1909 0.0177298 895.017 12.5053 1.34735e-05 72.2773
1910 0.0177433 895.119 12.5174 1.34735e-05 72.2548
1911 0.0177568 895.221 12.5295 1.34735e-05 72.2323
1912 0.0177703 895.323 12.5415 1.34735e-05 72.2098
1913 0.0177837 895.424 12.5536 1.34735e-05 72.1873
1914 0.0177972 895.526 12.5657 1.34735e-05 72.1649
1915 0.0178107 895.628 12.5777 1.34735e-05 72.1425
1916 0.0178241 895.729 12.5898 1.34735e-05 72.1201
1917 0.0178376 895.83 12.6019 1.34735e-05 72.0977
1918 0.0178511 895.931 12.6139 1.34735e-05 72.0754
1919 0.0178646 896.032 12.626 1.34735e-05 72.053
1920 0.017878 896.133 12.6381 1.34735e-05 72.0307
1921 0.0178915 896.234 12.6502 1.34735e-05 72.0084
1922 0.017905 896.335 12.6622 1.34735e-05 71.9862
1923 0.0179185 896.435 12.6743 1.34735e-05 71.9639
1924 0.0179319 896.535 12.6864 1.34735e-05 71.9417
1925 0.0179454 896.636 12.6985 1.34735e-05 71.9195
1926 0.0179589 896.736 12.7105 1.34735e-05 71.8973
1927 0.0179724 896.836 12.7226 1.48208e-05 71.8751
1928 0.0179872 896.946 12.7359 1.48208e-05 71.8508
1929 0.018002 897.055 12.7492 1.48208e-05 71.8264
1930 0.0180168 897.165 12.7625 1.48208e-05 71.8021
1931 0.0180316 897.274 12.7758 1.48208e-05 71.7778
1932 0.0180465 897.383 12.7891 1.48208e-05 71.7536
1933 0.0180613 897.492 12.8024 1.48208e-05 71.7293
1934 0.0180761 897.601 12.8157 1.48208e-05 71.7051
1935 0.0180909 897.71 12.829 1.48208e-05 71.6809
1936 0.0181057 897.819 12.8423 1.48208e-05 71.6567
1937 0.0181206 897.927 12.8556 1.48208e-05 71.6326
1938 0.0181354 898.035 12.8689 1.48208e-05 71.6085
1939 0.0181502 898.143 12.8822 1.48208e-05 71.5844
1940 0.018165 898.251 12.8956 1.48208e-05 71.5603
1941 0.0181798 898.359 12.9089 1.48208e-05 71.5363
1942 0.0181947 898.467 12.9222 1.48208e-05 71.5122
1943 0.0182095 898.574 12.9355 1.48208e-05 71.4883
1944 0.0182243 898.682 12.9488 1.48208e-05 71.4643
1945 0.0182391 898.789 12.9621 1.48208e-05 71.4403
1946 0.0182539 898.896 12.9755 1.48208e-05 71.4164
1947 0.0182688 899.003 12.9888 1.48208e-05 71.3925
1948 0.0182836 899.11 13.0021 1.48208e-05 71.3686
1949 0.0182984 899.217 13.0154 1.48208e-05 71.3448
1950 0.0183132 899.323 13.0288 1.48208e-05 71.3209
1951 0.0183281 899.429 13.0421 1.48208e-05 71.2971
1952 0.0183429 899.536 13.0554 1.48208e-05 71.2733
1953 0.0183577 899.642 13.0688 1.48208e-05 71.2496
1954 0.0183725 899.748 13.0821 1.48208e-05 71.2258
1955 0.0183873 899.853 13.0954 1.48208e-05 71.2021
1956 0.0184022 899.959 13.1088 1.48208e-05 71.1784
1957 0.018417 900.064 13.1221 1.48208e-05 71.1548
1958 0.0184318 900.17 13.1354 1.48208e-05 71.1311
1959 0.0184466 900.275 13.1488 1.48208e-05 71.1075
1960 0.0184614 900.38 13.1621 1.48208e-05 71.0839
1961 0.0184763 900.485 13.1755 1.48208e-05 71.0603
1962 0.0184911 900.59 13.1888 1.48208e-05 71.0368
1963 0.0185059 900.694 13.2022 1.48208e-05 71.0133
1964 0.0185207 900.799 13.2155 1.48208e-05 70.9898
1965 0.0185355 900.903 13.2289 1.48208e-05 70.9663
1966 0.0185504 901.007 13.2422 1.48208e-05 70.9428
1967 0.0185652 901.111 13.2556 1.48208e-05 70.9194
1968 0.01858 901.215 13.2689 1.48208e-05 70.896
1969 0.0185948 901.319 13.2823 1.48208e-05 70.8726
1970 0.0186096 901.422 13.2957 1.48208e-05 70.8492
1971 0.0186245 901.526 13.309 1.48208e-05 70.8259
1972 0.0186393 901.629 13.3224 1.48208e-05 70.8026
1973 0.0186541 901.732 13.3357 1.48208e-05 70.7793
1974 0.0186689 901.835 13.3491 1.48208e-05 70.756
1975 0.0186838 901.938 13.3625 1.48208e-05 70.7327
1976 0.0186986 902.041 13.3758 1.48208e-05 70.7095
1977 0.0187134 902.143 13.3892 1.48208e-05 70.6863
1978 0.0187282 902.246 13.4026 1.48208e-05 70.6631
1979 0.018743 902.348 13.416 1.48208e-05 70.64
1980 0.0187579 902.45 13.4293 1.48208e-05 70.6168
1981 0.0187727 902.552 13.4427 1.48208e-05 70.5937
1982 0.0187875 902.654 13.4561 1.48208e-05 70.5706
1983 0.0188023 902.756 13.4695 1.48208e-05 70.5475
1984 0.0188171 902.857 13.4828 1.48208e-05 70.5245
1985 0.018832 902.959 13.4962 1.48208e-05 70.5015
1986 0.0188468 903.06 13.5096 1.48208e-05 70.4785
1987 0.0188616 903.161 13.523 1.48208e-05 70.4555
1988 0.0188764 903.263 13.5364 1.48208e-05 70.4325
1989 0.0188912 903.363 13.5498 1.48208e-05 70.4096
1990 0.0189061 903.464 13.5632 1.48208e-05 70.3867
1991 0.0189209 903.565 13.5765 1.48208e-05 70.3638
1992 0.0189357 903.665 13.5899 1.48208e-05 70.3409
1993 0.0189505 903.766 13.6033 1.48208e-05 70.3181
1994 0.0189653 903.866 13.6167 1.48208e-05 70.2952
1995 0.0189802 903.966 13.6301 1.48208e-05 70.2724
1996 0.018995 904.066 13.6435 1.63029e-05 70.2497
1997 0.0190113 904.176 13.6583 1.63029e-05 70.2246
1998 0.0190276 904.285 13.673 1.63029e-05 70.1996
1999 0.0190439 904.395 13.6877 1.63029e-05 70.1746
2000 0.0190602 904.504 13.7025 1.63029e-05 70.1497
2001 0.0190765 904.613 13.7172 1.63029e-05 70.1248
2002 0.0190928 904.722 13.732 1.63029e-05 70.0999
2003 0.0191091 904.831 13.7467 1.63029e-05 70.075
2004 0.0191254 904.94 13.7615 1.63029e-05 70.0501
2005 0.0191417 905.048 13.7762 1.63029e-05 70.0253
2006 0.019158 905.156 13.791 1.63029e-05 70.0005
2007 0.0191743 905.265 13.8058 1.63029e-05 69.9758
2008 0.0191906 905.373 13.8205 1.63029e-05 69.951
2009 0.0192069 905.48 13.8353 1.63029e-05 69.9263
2010 0.0192232 905.588 13.85 1.63029e-05 69.9016
2011 0.0192395 905.696 13.8648 1.63029e-05 69.8769
2012 0.0192558 905.803 13.8796 1.63029e-05 69.8523
2013 0.0192721 905.91 13.8943 1.63029e-05 69.8277
2014 0.0192884 906.017 13.9091 1.63029e-05 69.8031
2015 0.0193047 906.124 13.9239 1.63029e-05 69.7786
2016 0.019321 906.231 13.9387 1.63029e-05 69.754
2017 0.0193373 906.337 13.9534 1.63029e-05 69.7295
2018 0.0193537 906.444 13.9682 1.63029e-05 69.705
2019 0.01937 906.55 13.983 1.63029e-05 69.6806
2020 0.0193863 906.656 13.9978 1.63029e-05 69.6561
2021 0.0194026 906.762 14.0125 1.63029e-05 69.6317
2022 0.0194189 906.868 14.0273 1.63029e-05 69.6074
2023 0.0194352 906.973 14.0421 1.63029e-05 69.583
2024 0.0194515 907.079 14.0569 1.63029e-05 69.5587
2025 0.0194678 907.184 14.0717 1.63029e-05 69.5344
2026 0.0194841 907.289 14.0865 1.63029e-05 69.5101
2027 0.0195004 907.394 14.1013 1.63029e-05 69.4858
2028 0.0195167 907.499 14.1161 1.63029e-05 69.4616
2029 0.019533 907.604 14.1309 1.63029e-05 69.4374
2030 0.0195493 907.708 14.1457 1.63029e-05 69.4132
2031 0.0195656 907.813 14.1605 1.63029e-05 69.3891
2032 0.0195819 907.917 14.1753 1.63029e-05 69.365
2033 0.0195982 908.021 14.1901 1.63029e-05 69.3409
2034 0.0196145 908.125 14.2049 1.63029e-05 69.3168
2035 0.0196308 908.229 14.2197 1.63029e-05 69.2927
2036 0.0196471 908.332 14.2345 1.63029e-05 69.2687
2037 0.0196634 908.436 14.2493 1.63029e-05 69.2447
2038 0.0196797 908.539 14.2641 1.63029e-05 69.2207
2039 0.019696 908.642 14.2789 1.63029e-05 69.1968
2040 0.0197123 908.745 14.2937 1.63029e-05 69.1728
2041 0.0197286 908.848 14.3085 1.63029e-05 69.1489
2042 0.0197449 908.95 14.3234 1.63029e-05 69.1251
2043 0.0197612 909.053 14.3382 1.63029e-05 69.1012
2044 0.0197775 909.155 14.353 1.63029e-05 69.0774
2045 0.0197938 909.258 14.3678 1.63029e-05 69.0536
2046 0.0198101 909.36 14.3826 1.63029e-05 69.0298
2047 0.0198264 909.462 14.3975 1.63029e-05 69.0061
2048 0.0198427 909.563 14.4123 1.63029e-05 68.9823
2049 0.019859 909.665 14.4271 1.63029e-05 68.9586
2050 0.0198753 909.767 14.442 1.63029e-05 68.935
2051 0.0198916 909.868 14.4568 1.63029e-05 68.9113
2052 0.019908 909.969 14.4716 1.63029e-05 68.8877
2053 0.0199243 910.07 14.4865 1.63029e-05 68.8641
2054 0.0199406 910.171 14.5013 1.63029e-05 68.8405
2055 0.0199569 910.272 14.5161 1.63029e-05 68.8169
2056 0.0199732 910.372 14.531 1.63029e-05 68.7934
2057 0.0199895 910.473 14.5458 1.63029e-05 68.7699
2058 0.0200058 910.573 14.5607 1.63029e-05 68.7464
2059 0.0200221 910.673 14.5755 1.63029e-05 68.7229
2060 0.0200384 910.773 14.5904 1.63029e-05 68.6995
2061 0.0200547 910.873 14.6052 1.79332e-05 68.6761
2062 0.0200726 910.983 14.6215 1.79332e-05 68.6504
2063 0.0200905 911.092 14.6379 1.79332e-05 68.6247
2064 0.0201085 911.202 14.6542 1.79332e-05 68.599
2065 0.0201264 911.311 14.6706 1.79332e-05 68.5734
2066 0.0201443 911.42 14.6869 1.79332e-05 68.5478
2067 0.0201623 911.529 14.7033 1.79332e-05 68.5222
2068 0.0201802 911.637 14.7196 1.79332e-05 68.4966
2069 0.0201981 911.746 14.736 1.79332e-05 68.4711
2070 0.0202161 911.854 14.7523 1.79332e-05 68.4456
2071 0.020234 911.962 14.7687 1.79332e-05 68.4201
2072 0.0202519 912.07 14.785 1.79332e-05 68.3947
2073 0.0202699 912.178 14.8014 1.79332e-05 68.3693
2074 0.0202878 912.285 14.8177 1.79332e-05 68.3439
2075 0.0203057 912.393 14.8341 1.79332e-05 68.3186
2076 0.0203237 912.5 14.8505 1.79332e-05 68.2932
2077 0.0203416 912.607 14.8668 1.79332e-05 68.2679
2078 0.0203595 912.714 14.8832 1.79332e-05 68.2427
2079 0.0203775 912.821 14.8996 1.79332e-05 68.2174
2080 0.0203954 912.927 14.9159 1.79332e-05 68.1922
2081 0.0204133 913.034 14.9323 1.79332e-05 68.167
2082 0.0204313 913.14 14.9487 1.79332e-05 68.1419
2083 0.0204492 913.246 14.9651 1.79332e-05 68.1168
2084 0.0204671 913.352 14.9814 1.79332e-05 68.0917
2085 0.0204851 913.458 14.9978 1.79332e-05 68.0666
2086 0.020503 913.563 15.0142 1.79332e-05 68.0416
2087 0.0205209 913.668 15.0306 1.79332e-05 68.0165
2088 0.0205389 913.774 15.047 1.79332e-05 67.9916
2089 0.0205568 913.879 15.0633 1.79332e-05 67.9666
2090 0.0205747 913.984 15.0797 1.79332e-05 67.9417
2091 0.0205927 914.088 15.0961 1.79332e-05 67.9168
2092 0.0206106 914.193 15.1125 1.79332e-05 67.8919
2093 0.0206285 914.297 15.1289 1.79332e-05 67.867
2094 0.0206465 914.402 15.1453 1.79332e-05 67.8422
2095 0.0206644 914.506 15.1617 1.79332e-05 67.8174
2096 0.0206823 914.609 15.1781 1.79332e-05 67.7927
2097 0.0207003 914.713 15.1945 1.79332e-05 67.7679
2098 0.0207182 914.817 15.2109 1.79332e-05 67.7432
2099 0.0207361 914.92 15.2273 1.79332e-05 67.7185
2100 0.0207541 915.023 15.2437 1.79332e-05 67.6939
2101 0.020772 915.126 15.2601 1.79332e-05 67.6693
2102 0.0207899 915.229 15.2766 1.79332e-05 67.6447
2103 0.0208079 915.332 15.293 1.79332e-05 67.6201
2104 0.0208258 915.435 15.3094 1.79332e-05 67.5955
2105 0.0208437 915.537 15.3258 1.79332e-05 67.571
2106 0.0208617 915.639 15.3422 1.79332e-05 67.5465
2107 0.0208796 915.742 15.3586 1.79332e-05 67.5221
2108 0.0208975 915.843 15.3751 1.79332e-05 67.4976
2109 0.0209155 915.945 15.3915 1.79332e-05 67.4732
2110 0.0209334 916.047 15.4079 1.79332e-05 67.4488
2111 0.0209513 916.148 15.4244 1.79332e-05 67.4245
2112 0.0209693 916.25 15.4408 1.79332e-05 67.4001
2113 0.0209872 916.351 15.4572 1.79332e-05 67.3758
2114 0.0210051 916.452 15.4736 1.79332e-05 67.3516
2115 0.0210231 916.553 15.4901 1.79332e-05 67.3273
2116 0.021041 916.653 15.5065 1.79332e-05 67.3031
2117 0.0210589 916.754 15.523 1.79332e-05 67.2789
2118 0.0210769 916.854 15.5394 1.79332e-05 67.2547
2119 0.0210948 916.954 15.5558 1.79332e-05 67.2306
2120 0.0211127 917.054 15.5723 1.79332e-05 67.2064
2121 0.0211307 917.154 15.5887 1.97265e-05 67.1824
2122 0.0211504 917.264 15.6068 1.97265e-05 67.1559
2123 0.0211701 917.374 15.6249 1.97265e-05 67.1294
2124 0.0211898 917.483 15.643 1.97265e-05 67.103
2125 0.0212096 917.592 15.6611 1.97265e-05 67.0767
2126 0.0212293 917.701 15.6792 1.97265e-05 67.0503
2127 0.021249 917.81 15.6973 1.97265e-05 67.024
2128 0.0212688 917.918 15.7154 1.97265e-05 66.9977
2129 0.0212885 918.027 15.7335 1.97265e-05 66.9715
2130 0.0213082 918.135 15.7517 1.97265e-05 66.9453
2131 0.0213279 918.243 15.7698 1.97265e-05 66.9191
2132 0.0213477 918.351 15.7879 1.97265e-05 66.8929
2133 0.0213674 918.458 15.806 1.97265e-05 66.8668
2134 0.0213871 918.566 15.8241 1.97265e-05 66.8407
2135 0.0214068 918.673 15.8422 1.97265e-05 66.8146
2136 0.0214266 918.78 15.8604 1.97265e-05 66.7886
2137 0.0214463 918.887 15.8785 1.97265e-05 66.7626
2138 0.021466 918.994 15.8966 1.97265e-05 66.7366
2139 0.0214857 919.1 15.9147 1.97265e-05 66.7107
2140 0.0215055 919.207 15.9329 1.97265e-05 66.6848
2141 0.0215252 919.313 15.951 1.97265e-05 66.6589
2142 0.0215449 919.419 15.9691 1.97265e-05 66.6331
2143 0.0215646 919.525 15.9873 1.97265e-05 66.6072
2144 0.0215844 919.63 16.0054 1.97265e-05 66.5815
2145 0.0216041 919.736 16.0236 1.97265e-05 66.5557
2146 0.0216238 919.841 16.0417 1.97265e-05 66.53
2147 0.0216436 919.946 16.0599 1.97265e-05 66.5043
2148 0.0216633 920.051 16.078 1.97265e-05 66.4786
2149 0.021683 920.156 16.0962 1.97265e-05 66.453
2150 0.0217027 920.261 16.1143 1.97265e-05 66.4274
2151 0.0217225 920.365 16.1325 1.97265e-05 66.4018
2152 0.0217422 920.469 16.1506 1.97265e-05 66.3763
2153 0.0217619 920.573 16.1688 1.97265e-05 66.3508
2154 0.0217816 920.677 16.1869 1.97265e-05 66.3253
2155 0.0218014 920.781 16.2051 1.97265e-05 66.2998
2156 0.0218211 920.884 16.2233 1.97265e-05 66.2744
2157 0.0218408 920.988 16.2414 1.97265e-05 66.249
2158 0.0218605 921.091 16.2596 1.97265e-05 66.2237
2159 0.0218803 921.194 16.2778 1.97265e-05 66.1983
2160 0.0219 921.297 16.2959 1.97265e-05 66.173
2161 0.0219197 921.399 16.3141 1.97265e-05 66.1478
2162 0.0219395 921.502 16.3323 1.97265e-05 66.1225
2163 0.0219592 921.604 16.3505 1.97265e-05 66.0973
2164 0.0219789 921.706 16.3687 1.97265e-05 66.0721
2165 0.0219986 921.808 16.3868 1.97265e-05 66.047
2166 0.0220184 921.91 16.405 1.97265e-05 66.0219
2167 0.0220381 922.012 16.4232 1.97265e-05 65.9968
2168 0.0220578 922.113 16.4414 1.97265e-05 65.9717
2169 0.0220775 922.214 16.4596 1.97265e-05 65.9467
2170 0.0220973 922.315 16.4778 1.97265e-05 65.9217
2171 0.022117 922.416 16.496 1.97265e-05 65.8967
2172 0.0221367 922.517 16.5142 1.97265e-05 65.8717
2173 0.0221564 922.618 16.5324 1.97265e-05 65.8468
2174 0.0221762 922.718 16.5506 1.97265e-05 65.8219
2175 0.0221959 922.818 16.5688 1.97265e-05 65.7971
2176 0.0222156 922.919 16.587 1.97265e-05 65.7722
2177 0.0222354 923.018 16.6052 2.16991e-05 65.7474
2178 0.022257 923.128 16.6252 2.16991e-05 65.7202
2179 0.0222787 923.238 16.6453 2.16991e-05 65.693
2180 0.0223004 923.347 16.6653 2.16991e-05 65.6658
2181 0.0223221 923.456 16.6853 2.16991e-05 65.6386
2182 0.0223438 923.565 16.7054 2.16991e-05 65.6115
2183 0.0223655 923.674 16.7254 2.16991e-05 65.5845
2184 0.0223872 923.782 16.7455 2.16991e-05 65.5574
2185 0.0224089 923.891 16.7655 2.16991e-05 65.5304
2186 0.0224306 923.999 16.7855 2.16991e-05 65.5034
2187 0.0224523 924.107 16.8056 2.16991e-05 65.4765
2188 0.022474 924.214 16.8257 2.16991e-05 65.4496
2189 0.0224957 924.322 16.8457 2.16991e-05 65.4227
2190 0.0225174 924.429 16.8658 2.16991e-05 65.3959
2191 0.0225391 924.536 16.8858 2.16991e-05 65.3691
2192 0.0225608 924.643 16.9059 2.16991e-05 65.3423
2193 0.0225825 924.75 16.926 2.16991e-05 65.3156
2194 0.0226042 924.857 16.946 2.16991e-05 65.2889
2195 0.0226259 924.963 16.9661 2.16991e-05 65.2622
2196 0.0226476 925.069 16.9862 2.16991e-05 65.2356
2197 0.0226693 925.175 17.0062 2.16991e-05 65.209
2198 0.022691 925.281 17.0263 2.16991e-05 65.1824
2199 0.0227127 925.387 17.0464 2.16991e-05 65.1559
2200 0.0227344 925.492 17.0665 2.16991e-05 65.1294
2201 0.0227561 925.597 17.0866 2.16991e-05 65.103
2202 0.0227778 925.702 17.1066 2.16991e-05 65.0765
2203 0.0227995 925.807 17.1267 2.16991e-05 65.0501
2204 0.0228212 925.912 17.1468 2.16991e-05 65.0238
2205 0.0228429 926.016 17.1669 2.16991e-05 64.9974
2206 0.0228646 926.12 17.187 2.16991e-05 64.9711
2207 0.0228863 926.224 17.2071 2.16991e-05 64.9449
2208 0.022908 926.328 17.2272 2.16991e-05 64.9187
2209 0.0229297 926.432 17.2473 2.16991e-05 64.8925
2210 0.0229514 926.535 17.2674 2.16991e-05 64.8663
2211 0.0229731 926.639 17.2875 2.16991e-05 64.8402
2212 0.0229948 926.742 17.3076 2.16991e-05 64.8141
2213 0.0230165 926.845 17.3277 2.16991e-05 64.788
2214 0.0230382 926.948 17.3478 2.16991e-05 64.762
2215 0.0230599 927.05 17.368 2.16991e-05 64.736
2216 0.0230816 927.153 17.3881 2.16991e-05 64.71
2217 0.0231033 927.255 17.4082 2.16991e-05 64.6841
2218 0.023125 927.357 17.4283 2.16991e-05 64.6582
2219 0.0231467 927.459 17.4484 2.16991e-05 64.6323
2220 0.0231684 927.56 17.4686 2.16991e-05 64.6065
2221 0.0231901 927.662 17.4887 2.16991e-05 64.5806
2222 0.0232118 927.763 17.5088 2.16991e-05 64.5549
2223 0.0232335 927.864 17.529 2.16991e-05 64.5291
2224 0.0232552 927.965 17.5491 2.16991e-05 64.5034
2225 0.0232769 928.066 17.5692 2.16991e-05 64.4777
2226 0.0232986 928.166 17.5894 2.16991e-05 64.4521
2227 0.0233203 928.267 17.6095 2.16991e-05 64.4265
2228 0.023342 928.367 17.6297 2.16991e-05 64.4009
2229 0.0233637 928.467 17.6498 2.16991e-05 64.3754
2230 0.0233854 928.567 17.67 2.38691e-05 64.3498
2231 0.0234093 928.676 17.6921 2.38691e-05 64.3218
2232 0.0234331 928.786 17.7143 2.38691e-05 64.2938
2233 0.023457 928.895 17.7365 2.38691e-05 64.2659
2234 0.0234809 929.004 17.7586 2.38691e-05 64.2379
2235 0.0235048 929.113 17.7808 2.38691e-05 64.2101
2236 0.0235286 929.221 17.803 2.38691e-05 64.1822
2237 0.0235525 929.329 17.8252 2.38691e-05 64.1544
2238 0.0235764 929.438 17.8474 2.38691e-05 64.1267
2239 0.0236002 929.545 17.8695 2.38691e-05 64.0989
2240 0.0236241 929.653 17.8917 2.38691e-05 64.0712
2241 0.023648 929.761 17.9139 2.38691e-05 64.0436
2242 0.0236718 929.868 17.9361 2.38691e-05 64.016
2243 0.0236957 929.975 17.9583 2.38691e-05 63.9884
2244 0.0237196 930.082 17.9805 2.38691e-05 63.9609
2245 0.0237434 930.188 18.0027 2.38691e-05 63.9334
2246 0.0237673 930.295 18.0249 2.38691e-05 63.9059
2247 0.0237912 930.401 18.0471 2.38691e-05 63.8785
2248 0.023815 930.507 18.0693 2.38691e-05 63.8511
2249 0.0238389 930.613 18.0915 2.38691e-05 63.8237
2250 0.0238628 930.718 18.1138 2.38691e-05 63.7964
2251 0.0238867 930.824 18.136 2.38691e-05 63.7691
2252 0.0239105 930.929 18.1582 2.38691e-05 63.7419
2253 0.0239344 931.034 18.1804 2.38691e-05 63.7147
2254 0.0239583 931.139 18.2026 2.38691e-05 63.6875
2255 0.0239821 931.243 18.2249 2.38691e-05 63.6604
2256 0.024006 931.348 18.2471 2.38691e-05 63.6333
2257 0.0240299 931.452 18.2693 2.38691e-05 63.6062
2258 0.0240537 931.556 18.2916 2.38691e-05 63.5792
2259 0.0240776 931.66 18.3138 2.38691e-05 63.5522
2260 0.0241015 931.763 18.336 2.38691e-05 63.5253
2261 0.0241253 931.867 18.3583 2.38691e-05 63.4983
2262 0.0241492 931.97 18.3805 2.38691e-05 63.4715
2263 0.0241731 932.073 18.4028 2.38691e-05 63.4446
2264 0.024197 932.176 18.425 2.38691e-05 63.4178
2265 0.0242208 932.278 18.4473 2.38691e-05 63.391
2266 0.0242447 932.38 18.4695 2.38691e-05 63.3643
2267 0.0242686 932.483 18.4918 2.38691e-05 63.3376
2268 0.0242924 932.585 18.514 2.38691e-05 63.311
2269 0.0243163 932.686 18.5363 2.38691e-05 63.2843
2270 0.0243402 932.788 18.5586 2.38691e-05 63.2577
2271 0.024364 932.889 18.5808 2.38691e-05 63.2312
2272 0.0243879 932.991 18.6031 2.38691e-05 63.2047
2273 0.0244118 933.092 18.6254 2.38691e-05 63.1782
2274 0.0244356 933.192 18.6476 2.38691e-05 63.1517
2275 0.0244595 933.293 18.6699 2.38691e-05 63.1253
2276 0.0244834 933.393 18.6922 2.38691e-05 63.0989
2277 0.0245073 933.494 18.7145 2.38691e-05 63.0726
2278 0.0245311 933.594 18.7368 2.38691e-05 63.0463
2279 0.024555 933.693 18.759 2.6256e-05 63.02
2280 0.0245812 933.803 18.7836 2.6256e-05 62.9911
2281 0.0246075 933.912 18.8081 2.6256e-05 62.9623
2282 0.0246338 934.022 18.8326 2.6256e-05 62.9336
2283 0.02466 934.13 18.8571 2.6256e-05 62.9048
2284 0.0246863 934.239 18.8816 2.6256e-05 62.8761
2285 0.0247125 934.348 18.9062 2.6256e-05 62.8475
2286 0.0247388 934.456 18.9307 2.6256e-05 62.8189
2287 0.024765 934.564 18.9552 2.6256e-05 62.7903
2288 0.0247913 934.672 18.9798 2.6256e-05 62.7618
2289 0.0248175 934.779 19.0043 2.6256e-05 62.7333
2290 0.0248438 934.886 19.0289 2.6256e-05 62.7048
2291 0.0248701 934.994 19.0534 2.6256e-05 62.6764
2292 0.0248963 935.1 19.078 2.6256e-05 62.6481
2293 0.0249226 935.207 19.1025 2.6256e-05 62.6198
2294 0.0249488 935.313 19.1271 2.6256e-05 62.5915
2295 0.0249751 935.42 19.1516 2.6256e-05 62.5633
2296 0.0250013 935.526 19.1762 2.6256e-05 62.5351
2297 0.0250276 935.631 19.2008 2.6256e-05 62.5069
2298 0.0250539 935.737 19.2253 2.6256e-05 62.4788
2299 0.0250801 935.842 19.2499 2.6256e-05 62.4507
2300 0.0251064 935.947 19.2745 2.6256e-05 62.4227
2301 0.0251326 936.052 19.2991 2.6256e-05 62.3947
2302 0.0251589 936.157 19.3236 2.6256e-05 62.3667
2303 0.0251851 936.261 19.3482 2.6256e-05 62.3388
2304 0.0252114 936.365 19.3728 2.6256e-05 62.311
2305 0.0252376 936.469 19.3974 2.6256e-05 62.2831
2306 0.0252639 936.573 19.422 2.6256e-05 62.2553
2307 0.0252902 936.677 19.4466 2.6256e-05 62.2276
2308 0.0253164 936.78 19.4712 2.6256e-05 62.1999
2309 0.0253427 936.883 19.4958 2.6256e-05 62.1722
2310 0.0253689 936.986 19.5204 2.6256e-05 62.1446
2311 0.0253952 937.089 19.545 2.6256e-05 62.117
2312 0.0254214 937.191 19.5696 2.6256e-05 62.0894
2313 0.0254477 937.294 19.5942 2.6256e-05 62.0619
2314 0.0254739 937.396 19.6188 2.6256e-05 62.0344
2315 0.0255002 937.498 19.6434 2.6256e-05 62.007
2316 0.0255265 937.599 19.668 2.6256e-05 61.9796
2317 0.0255527 937.701 19.6926 2.6256e-05 61.9522
2318 0.025579 937.802 19.7173 2.6256e-05 61.9249
2319 0.0256052 937.903 19.7419 2.6256e-05 61.8977
2320 0.0256315 938.004 19.7665 2.6256e-05 61.8704
2321 0.0256577 938.104 19.7911 2.6256e-05 61.8432
2322 0.025684 938.205 19.8158 2.6256e-05 61.8161
2323 0.0257103 938.305 19.8404 2.6256e-05 61.7889
2324 0.0257365 938.405 19.865 2.88816e-05 61.7618
2325 0.0257654 938.515 19.8921 2.88816e-05 61.7321
2326 0.0257943 938.624 19.9193 2.88816e-05 61.7024
2327 0.0258232 938.734 19.9464 2.88816e-05 61.6727
2328 0.025852 938.843 19.9735 2.88816e-05 61.6431
2329 0.0258809 938.951 20.0006 2.88816e-05 61.6136
2330 0.0259098 939.06 20.0277 2.88816e-05 61.5841
2331 0.0259387 939.168 20.0548 2.88816e-05 61.5546
2332 0.0259676 939.276 20.082 2.88816e-05 61.5252
2333 0.0259964 939.384 20.1091 2.88816e-05 61.4958
2334 0.0260253 939.491 20.1362 2.88816e-05 61.4665
2335 0.0260542 939.599 20.1634 2.88816e-05 61.4372
2336 0.0260831 939.706 20.1905 2.88816e-05 61.4079
2337 0.026112 939.813 20.2176 2.88816e-05 61.3787
2338 0.0261408 939.919 20.2448 2.88816e-05 61.3496
2339 0.0261697 940.025 20.2719 2.88816e-05 61.3205
2340 0.0261986 940.132 20.2991 2.88816e-05 61.2914
2341 0.0262275 940.237 20.3262 2.88816e-05 61.2624
2342 0.0262564 940.343 20.3534 2.88816e-05 61.2334
2343 0.0262853 940.448 20.3806 2.88816e-05 61.2045
2344 0.0263141 940.554 20.4077 2.88816e-05 61.1756
2345 0.026343 940.659 20.4349 2.88816e-05 61.1468
2346 0.0263719 940.763 20.4621 2.88816e-05 61.118
2347 0.0264008 940.868 20.4892 2.88816e-05 61.0893
2348 0.0264297 940.972 20.5164 2.88816e-05 61.0606
2349 0.0264585 941.076 20.5436 2.88816e-05 61.0319
2350 0.0264874 941.18 20.5708 2.88816e-05 61.0033
2351 0.0265163 941.283 20.5979 2.88816e-05 60.9747
2352 0.0265452 941.386 20.6251 2.88816e-05 60.9462
2353 0.0265741 941.489 20.6523 2.88816e-05 60.9177
2354 0.026603 941.592 20.6795 2.88816e-05 60.8893
2355 0.0266318 941.695 20.7067 2.88816e-05 60.8609
2356 0.0266607 941.797 20.7339 2.88816e-05 60.8326
2357 0.0266896 941.899 20.7611 2.88816e-05 60.8043
2358 0.0267185 942.001 20.7883 2.88816e-05 60.776
2359 0.0267474 942.103 20.8155 2.88816e-05 60.7478
2360 0.0267762 942.204 20.8427 2.88816e-05 60.7196
2361 0.0268051 942.306 20.87 2.88816e-05 60.6915
2362 0.026834 942.407 20.8972 2.88816e-05 60.6634
2363 0.0268629 942.508 20.9244 2.88816e-05 60.6353
2364 0.0268918 942.608 20.9516 2.88816e-05 60.6073
2365 0.0269207 942.708 20.9788 2.88816e-05 60.5794
2366 0.0269495 942.809 21.0061 2.88816e-05 60.5515
2367 0.0269784 942.908 21.0333 3.17697e-05 60.5236
2368 0.0270102 943.018 21.0633 3.17697e-05 60.493
2369 0.027042 943.128 21.0932 3.17697e-05 60.4624
2370 0.0270737 943.237 21.1232 3.17697e-05 60.4319
2371 0.0271055 943.345 21.1531 3.17697e-05 60.4014
2372 0.0271373 943.454 21.1831 3.17697e-05 60.371
2373 0.027169 943.562 21.2131 3.17697e-05 60.3407
2374 0.0272008 943.67 21.2431 3.17697e-05 60.3104
2375 0.0272326 943.778 21.2731 3.17697e-05 60.2801
2376 0.0272643 943.886 21.303 3.17697e-05 60.2499
2377 0.0272961 943.993 21.333 3.17697e-05 60.2197
2378 0.0273279 944.1 21.363 3.17697e-05 60.1896
2379 0.0273597 944.207 21.393 3.17697e-05 60.1596
2380 0.0273914 944.313 21.423 3.17697e-05 60.1296
2381 0.0274232 944.42 21.453 3.17697e-05 60.0996
2382 0.027455 944.526 21.483 3.17697e-05 60.0697
2383 0.0274867 944.631 21.513 3.17697e-05 60.0399
2384 0.0275185 944.737 21.543 3.17697e-05 60.0101
2385 0.0275503 944.842 21.5731 3.17697e-05 59.9803
2386 0.027582 944.947 21.6031 3.17697e-05 59.9506
2387 0.0276138 945.052 21.6331 3.17697e-05 59.921
2388 0.0276456 945.156 21.6631 3.17697e-05 59.8913
2389 0.0276773 945.26 21.6932 3.17697e-05 59.8618
2390 0.0277091 945.364 21.7232 3.17697e-05 59.8323
2391 0.0277409 945.468 21.7532 3.17697e-05 59.8028
2392 0.0277727 945.572 21.7833 3.17697e-05 59.7734
2393 0.0278044 945.675 21.8133 3.17697e-05 59.744
2394 0.0278362 945.778 21.8433 3.17697e-05 59.7147
2395 0.027868 945.881 21.8734 3.17697e-05 59.6855
2396 0.0278997 945.983 21.9034 3.17697e-05 59.6563
2397 0.0279315 946.085 21.9335 3.17697e-05 59.6271
2398 0.0279633 946.187 21.9636 3.17697e-05 59.598
2399 0.027995 946.289 21.9936 3.17697e-05 59.5689
2400 0.0280268 946.391 22.0237 3.17697e-05 59.5399
2401 0.0280586 946.492 22.0538 3.17697e-05 59.5109
2402 0.0280904 946.593 22.0838 3.17697e-05 59.482
2403 0.0281221 946.694 22.1139 3.17697e-05 59.4531
2404 0.0281539 946.794 22.144 3.17697e-05 59.4242
2405 0.0281857 946.895 22.1741 3.17697e-05 59.3955
2406 0.0282174 946.995 22.2041 3.17697e-05 59.3667
2407 0.0282492 947.095 22.2342 3.49467e-05 59.338
2408 0.0282842 947.204 22.2673 3.49467e-05 59.3065
2409 0.0283191 947.313 22.3004 3.49467e-05 59.2751
2410 0.028354 947.422 22.3335 3.49467e-05 59.2437
2411 0.028389 947.531 22.3667 3.49467e-05 59.2123
2412 0.0284239 947.64 22.3998 3.49467e-05 59.181
2413 0.0284589 947.748 22.4329 3.49467e-05 59.1498
2414 0.0284938 947.856 22.466 3.49467e-05 59.1187
2415 0.0285288 947.963 22.4991 3.49467e-05 59.0875
2416 0.0285637 948.071 22.5323 3.49467e-05 59.0565
2417 0.0285987 948.178 22.5654 3.49467e-05 59.0255
2418 0.0286336 948.284 22.5985 3.49467e-05 58.9945
2419 0.0286686 948.391 22.6317 3.49467e-05 58.9636
2420 0.0287035 948.497 22.6648 3.49467e-05 58.9328
2421 0.0287385 948.603 22.698 3.49467e-05 58.902
2422 0.0287734 948.709 22.7311 3.49467e-05 58.8713
2423 0.0288084 948.814 22.7643 3.49467e-05 58.8406
2424 0.0288433 948.919 22.7974 3.49467e-05 58.81
2425 0.0288782 949.024 22.8306 3.49467e-05 58.7795
2426 0.0289132 949.129 22.8638 3.49467e-05 58.7489
2427 0.0289481 949.233 22.8969 3.49467e-05 58.7185
2428 0.0289831 949.337 22.9301 3.49467e-05 58.6881
2429 0.029018 949.441 22.9633 3.49467e-05 58.6578
2430 0.029053 949.544 22.9965 3.49467e-05 58.6275
2431 0.0290879 949.647 23.0297 3.49467e-05 58.5972
2432 0.0291229 949.75 23.0629 3.49467e-05 58.567
2433 0.0291578 949.853 23.096 3.49467e-05 58.5369
2434 0.0291928 949.956 23.1292 3.49467e-05 58.5068
2435 0.0292277 950.058 23.1624 3.49467e-05 58.4768
2436 0.0292627 950.16 23.1956 3.49467e-05 58.4468
2437 0.0292976 950.261 23.2289 3.49467e-05 58.4169
2438 0.0293326 950.363 23.2621 3.49467e-05 58.3871
2439 0.0293675 950.464 23.2953 3.49467e-05 58.3573
2440 0.0294024 950.565 23.3285 3.49467e-05 58.3275
2441 0.0294374 950.665 23.3617 3.49467e-05 58.2978
2442 0.0294723 950.766 23.3949 3.49467e-05 58.2681
2443 0.0295073 950.866 23.4282 3.49467e-05 58.2385
2444 0.0295422 950.966 23.4614 3.84414e-05 58.209
2445 0.0295807 951.075 23.498 3.84414e-05 58.1766
2446 0.0296191 951.185 23.5345 3.84414e-05 58.1442
2447 0.0296576 951.294 23.5711 3.84414e-05 58.1119
2448 0.029696 951.402 23.6077 3.84414e-05 58.0796
2449 0.0297344 951.511 23.6442 3.84414e-05 58.0474
2450 0.0297729 951.619 23.6808 3.84414e-05 58.0153
2451 0.0298113 951.726 23.7174 3.84414e-05 57.9832
2452 0.0298498 951.834 23.754 3.84414e-05 57.9512
2453 0.0298882 951.941 23.7906 3.84414e-05 57.9193
2454 0.0299266 952.048 23.8272 3.84414e-05 57.8874
2455 0.0299651 952.154 23.8638 3.84414e-05 57.8556
2456 0.0300035 952.261 23.9004 3.84414e-05 57.8238
2457 0.030042 952.367 23.937 3.84414e-05 57.7921
2458 0.0300804 952.472 23.9736 3.84414e-05 57.7605
2459 0.0301189 952.578 24.0102 3.84414e-05 57.7289
2460 0.0301573 952.683 24.0468 3.84414e-05 57.6974
2461 0.0301957 952.788 24.0835 3.84414e-05 57.6659
2462 0.0302342 952.892 24.1201 3.84414e-05 57.6345
2463 0.0302726 952.996 24.1567 3.84414e-05 57.6032
2464 0.0303111 953.1 24.1934 3.84414e-05 57.5719
2465 0.0303495 953.204 24.23 3.84414e-05 57.5407
2466 0.0303879 953.307 24.2666 3.84414e-05 57.5095
2467 0.0304264 953.41 24.3033 3.84414e-05 57.4784
2468 0.0304648 953.513 24.3399 3.84414e-05 57.4474
2469 0.0305033 953.616 24.3766 3.84414e-05 57.4164
2470 0.0305417 953.718 24.4133 3.84414e-05 57.3855
2471 0.0305801 953.82 24.4499 3.84414e-05 57.3546
2472 0.0306186 953.922 24.4866 3.84414e-05 57.3238
2473 0.030657 954.023 24.5233 3.84414e-05 57.2931
2474 0.0306955 954.124 24.5599 3.84414e-05 57.2624
2475 0.0307339 954.225 24.5966 3.84414e-05 57.2318
2476 0.0307724 954.326 24.6333 3.84414e-05 57.2012
2477 0.0308108 954.426 24.67 3.84414e-05 57.1707
2478 0.0308492 954.526 24.7067 3.84414e-05 57.1402
2479 0.0308877 954.626 24.7434 4.22855e-05 57.1098
2480 0.03093 954.735 24.7837 4.22855e-05 57.0765
2481 0.0309723 954.844 24.8241 4.22855e-05 57.0432
2482 0.0310145 954.953 24.8645 4.22855e-05 57.0099
2483 0.0310568 955.061 24.9049 4.22855e-05 56.9768
2484 0.0310991 955.169 24.9453 4.22855e-05 56.9437
2485 0.0311414 955.277 24.9857 4.22855e-05 56.9107
2486 0.0311837 955.385 25.0261 4.22855e-05 56.8777
2487 0.031226 955.492 25.0665 4.22855e-05 56.8448
2488 0.0312682 955.599 25.1069 4.22855e-05 56.812
2489 0.0313105 955.705 25.1473 4.22855e-05 56.7793
2490 0.0313528 955.811 25.1877 4.22855e-05 56.7466
2491 0.0313951 955.917 25.2281 4.22855e-05 56.714
2492 0.0314374 956.023 25.2685 4.22855e-05 56.6814
2493 0.0314797 956.128 25.309 4.22855e-05 56.6489
2494 0.031522 956.233 25.3494 4.22855e-05 56.6165
2495 0.0315642 956.338 25.3898 4.22855e-05 56.5842
2496 0.0316065 956.442 25.4303 4.22855e-05 56.5519
2497 0.0316488 956.546 25.4707 4.22855e-05 56.5197
2498 0.0316911 956.65 25.5112 4.22855e-05 56.4875
2499 0.0317334 956.753 25.5516 4.22855e-05 56.4555
2500 0.0317757 956.856 25.5921 4.22855e-05 56.4234
2501 0.031818 956.959 25.6325 4.22855e-05 56.3915
2502 0.0318602 957.061 25.673 4.22855e-05 56.3596
2503 0.0319025 957.164 25.7135 4.22855e-05 56.3278
2504 0.0319448 957.265 25.754 4.22855e-05 56.296
2505 0.0319871 957.367 25.7944 4.22855e-05 56.2644
2506 0.0320294 957.468 25.8349 4.22855e-05 56.2327
2507 0.0320717 957.569 25.8754 4.22855e-05 56.2012
2508 0.032114 957.67 25.9159 4.22855e-05 56.1697
2509 0.0321562 957.77 25.9564 4.22855e-05 56.1383
2510 0.0321985 957.87 25.9969 4.22855e-05 56.1069
2511 0.0322408 957.97 26.0374 4.6514e-05 56.0756
2512 0.0322873 958.08 26.082 4.6514e-05 56.0412
2513 0.0323338 958.189 26.1265 4.6514e-05 56.007
2514 0.0323804 958.298 26.1711 4.6514e-05 55.9728
2515 0.0324269 958.406 26.2157 4.6514e-05 55.9386
2516 0.0324734 958.514 26.2603 4.6514e-05 55.9046
2517 0.0325199 958.622 26.3049 4.6514e-05 55.8706
2518 0.0325664 958.729 26.3494 4.6514e-05 55.8367
2519 0.0326129 958.836 26.394 4.6514e-05 55.8029
2520 0.0326594 958.943 26.4386 4.6514e-05 55.7691
2521 0.032706 959.049 26.4833 4.6514e-05 55.7355
2522 0.0327525 959.155 26.5279 4.6514e-05 55.7019
2523 0.032799 959.261 26.5725 4.6514e-05 55.6683
2524 0.0328455 959.366 26.6171 4.6514e-05 55.6349
2525 0.032892 959.471 26.6617 4.6514e-05 55.6015
2526 0.0329385 959.576 26.7064 4.6514e-05 55.5682
2527 0.032985 959.68 26.751 4.6514e-05 55.535
2528 0.0330316 959.784 26.7956 4.6514e-05 55.5019
2529 0.0330781 959.888 26.8403 4.6514e-05 55.4688
2530 0.0331246 959.991 26.8849 4.6514e-05 55.4358
2531 0.0331711 960.094 26.9296 4.6514e-05 55.4028
2532 0.0332176 960.197 26.9742 4.6514e-05 55.37
2533 0.0332641 960.299 27.0189 4.6514e-05 55.3372
2534 0.0333106 960.401 27.0636 4.6514e-05 55.3045
2535 0.0333572 960.503 27.1083 4.6514e-05 55.2718
2536 0.0334037 960.604 27.1529 4.6514e-05 55.2393
2537 0.0334502 960.705 27.1976 4.6514e-05 55.2068
2538 0.0334967 960.806 27.2423 4.6514e-05 55.1744
2539 0.0335432 960.906 27.287 4.6514e-05 55.142
2540 0.0335897 961.007 27.3317 4.6514e-05 55.1097
2541 0.0336362 961.106 27.3764 5.11655e-05 55.0775
2542 0.0336874 961.216 27.4256 5.11655e-05 55.0422
2543 0.0337386 961.325 27.4748 5.11655e-05 55.0069
2544 0.0337897 961.433 27.524 5.11655e-05 54.9717
2545 0.0338409 961.542 27.5732 5.11655e-05 54.9366
2546 0.0338921 961.65 27.6224 5.11655e-05 54.9016
2547 0.0339432 961.757 27.6716 5.11655e-05 54.8667
2548 0.0339944 961.864 27.7208 5.11655e-05 54.8318
2549 0.0340456 961.971 27.77 5.11655e-05 54.7971
2550 0.0340967 962.078 27.8192 5.11655e-05 54.7624
2551 0.0341479 962.184 27.8684 5.11655e-05 54.7278
2552 0.0341991 962.289 27.9177 5.11655e-05 54.6933
2553 0.0342502 962.395 27.9669 5.11655e-05 54.6589
2554 0.0343014 962.5 28.0162 5.11655e-05 54.6245
2555 0.0343526 962.604 28.0654 5.11655e-05 54.5903
2556 0.0344037 962.709 28.1147 5.11655e-05 54.5561
2557 0.0344549 962.813 28.1639 5.11655e-05 54.522
2558 0.034506 962.916 28.2132 5.11655e-05 54.488
2559 0.0345572 963.019 28.2625 5.11655e-05 54.454
2560 0.0346084 963.122 28.3117 5.11655e-05 54.4202
2561 0.0346595 963.225 28.361 5.11655e-05 54.3864
2562 0.0347107 963.327 28.4103 5.11655e-05 54.3527
2563 0.0347619 963.429 28.4596 5.11655e-05 54.3191
2564 0.034813 963.53 28.5089 5.11655e-05 54.2856
2565 0.0348642 963.631 28.5582 5.11655e-05 54.2521
2566 0.0349154 963.732 28.6075 5.11655e-05 54.2187
2567 0.0349665 963.832 28.6568 5.11655e-05 54.1855
2568 0.0350177 963.933 28.7061 5.11655e-05 54.1522
2569 0.0350689 964.032 28.7554 5.6282e-05 54.1191
2570 0.0351252 964.142 28.8097 5.6282e-05 54.0827
2571 0.0351814 964.251 28.864 5.6282e-05 54.0465
2572 0.0352377 964.359 28.9182 5.6282e-05 54.0103
2573 0.035294 964.467 28.9725 5.6282e-05 53.9742
2574 0.0353503 964.575 29.0268 5.6282e-05 53.9383
2575 0.0354066 964.682 29.0811 5.6282e-05 53.9024
2576 0.0354628 964.789 29.1354 5.6282e-05 53.8666
2577 0.0355191 964.896 29.1897 5.6282e-05 53.8309
2578 0.0355754 965.002 29.244 5.6282e-05 53.7953
2579 0.0356317 965.108 29.2983 5.6282e-05 53.7597
2580 0.035688 965.213 29.3526 5.6282e-05 53.7243
2581 0.0357443 965.318 29.407 5.6282e-05 53.689
2582 0.0358005 965.423 29.4613 5.6282e-05 53.6537
2583 0.0358568 965.527 29.5156 5.6282e-05 53.6186
2584 0.0359131 965.631 29.57 5.6282e-05 53.5835
2585 0.0359694 965.734 29.6243 5.6282e-05 53.5486
2586 0.0360257 965.837 29.6787 5.6282e-05 53.5137
2587 0.0360819 965.94 29.7331 5.6282e-05 53.4789
2588 0.0361382 966.042 29.7874 5.6282e-05 53.4442
2589 0.0361945 966.144 29.8418 5.6282e-05 53.4096
2590 0.0362508 966.246 29.8962 5.6282e-05 53.375
2591 0.0363071 966.347 29.9506 5.6282e-05 53.3406
2592 0.0363634 966.448 30.005 5.6282e-05 53.3063
2593 0.0364196 966.549 30.0594 5.6282e-05 53.272
2594 0.0364759 966.649 30.1138 5.6282e-05 53.2378
2595 0.0365322 966.748 30.1682 6.19102e-05 53.2038
2596 0.0365941 966.858 30.228 6.19102e-05 53.1664
2597 0.036656 966.967 30.2879 6.19102e-05 53.1291
2598 0.0367179 967.075 30.3477 6.19102e-05 53.0919
2599 0.0367798 967.183 30.4076 6.19102e-05 53.0548
2600 0.0368418 967.291 30.4675 6.19102e-05 53.0178
2601 0.0369037 967.398 30.5274 6.19102e-05 52.981
2602 0.0369656 967.504 30.5873 6.19102e-05 52.9442
2603 0.0370275 967.611 30.6472 6.19102e-05 52.9076
2604 0.0370894 967.717 30.7071 6.19102e-05 52.871
2605 0.0371513 967.822 30.767 6.19102e-05 52.8345
2606 0.0372132 967.927 30.8269 6.19102e-05 52.7982
2607 0.0372751 968.032 30.8869 6.19102e-05 52.7619
2608 0.037337 968.136 30.9468 6.19102e-05 52.7258
2609 0.0373989 968.24 31.0067 6.19102e-05 52.6897
2610 0.0374609 968.343 31.0667 6.19102e-05 52.6538
2611 0.0375228 968.446 31.1266 6.19102e-05 52.6179
2612 0.0375847 968.549 31.1866 6.19102e-05 52.5822
2613 0.0376466 968.651 31.2466 6.19102e-05 52.5465
2614 0.0377085 968.753 31.3065 6.19102e-05 52.511
2615 0.0377704 968.854 31.3665 6.19102e-05 52.4755
2616 0.0378323 968.955 31.4265 6.19102e-05 52.4401
2617 0.0378942 969.056 31.4865 6.19102e-05 52.4049
2618 0.0379561 969.156 31.5465 6.19102e-05 52.3697
2619 0.038018 969.256 31.6065 6.81012e-05 52.3347
2620 0.0380861 969.365 31.6725 6.81012e-05 52.2962
2621 0.0381542 969.474 31.7385 6.81012e-05 52.2578
2622 0.0382223 969.582 31.8046 6.81012e-05 52.2196
2623 0.0382905 969.69 31.8706 6.81012e-05 52.1815
2624 0.0383586 969.798 31.9366 6.81012e-05 52.1435
2625 0.0384267 969.905 32.0027 6.81012e-05 52.1056
2626 0.0384948 970.011 32.0687 6.81012e-05 52.0679
2627 0.0385629 970.117 32.1348 6.81012e-05 52.0302
2628 0.038631 970.223 32.2009 6.81012e-05 51.9927
2629 0.0386991 970.328 32.2669 6.81012e-05 51.9553
2630 0.0387672 970.433 32.333 6.81012e-05 51.9179
2631 0.0388353 970.537 32.3991 6.81012e-05 51.8808
2632 0.0389034 970.641 32.4652 6.81012e-05 51.8437
2633 0.0389715 970.745 32.5313 6.81012e-05 51.8067
2634 0.0390396 970.848 32.5974 6.81012e-05 51.7698
2635 0.0391077 970.95 32.6635 6.81012e-05 51.7331
2636 0.0391758 971.052 32.7297 6.81012e-05 51.6964
2637 0.0392439 971.154 32.7958 6.81012e-05 51.6599
2638 0.039312 971.255 32.8619 6.81012e-05 51.6235
2639 0.0393801 971.356 32.9281 6.81012e-05 51.5872
2640 0.0394482 971.457 32.9942 6.81012e-05 51.551
2641 0.0395163 971.557 33.0604 7.49113e-05 51.5149
2642 0.0395912 971.666 33.1332 7.49113e-05 51.4753
2643 0.0396661 971.775 33.206 7.49113e-05 51.4358
2644 0.039741 971.884 33.2788 7.49113e-05 51.3965
2645 0.0398159 971.992 33.3516 7.49113e-05 51.3573
2646 0.0398908 972.099 33.4244 7.49113e-05 51.3182
2647 0.0399657 972.206 33.4972 7.49113e-05 51.2793
2648 0.0400407 972.313 33.5701 7.49113e-05 51.2405
2649 0.0401156 972.419 33.6429 7.49113e-05 51.2018
2650 0.0401905 972.524 33.7158 7.49113e-05 51.1632
2651 0.0402654 972.629 33.7886 7.49113e-05 51.1248
2652 0.0403403 972.734 33.8615 7.49113e-05 51.0865
2653 0.0404152 972.838 33.9344 7.49113e-05 51.0483
2654 0.0404901 972.942 34.0072 7.49113e-05 51.0103
2655 0.040565 973.045 34.0801 7.49113e-05 50.9723
2656 0.0406399 973.148 34.153 7.49113e-05 50.9345
2657 0.0407149 973.25 34.2259 7.49113e-05 50.8968
2658 0.0407898 973.351 34.2988 7.49113e-05 50.8593
2659 0.0408647 973.453 34.3718 7.49113e-05 50.8218
2660 0.0409396 973.554 34.4447 7.49113e-05 50.7845
2661 0.0410145 973.654 34.5176 7.49113e-05 50.7473
2662 0.0410894 973.754 34.5906 8.24025e-05 50.7102
2663 0.0411718 973.863 34.6708 8.24025e-05 50.6696
2664 0.0412542 973.972 34.7511 8.24025e-05 50.6291
2665 0.0413366 974.081 34.8313 8.24025e-05 50.5887
2666 0.041419 974.188 34.9116 8.24025e-05 50.5485
2667 0.0415014 974.296 34.9919 8.24025e-05 50.5084
2668 0.0415838 974.402 35.0722 8.24025e-05 50.4685
2669 0.0416662 974.508 35.1525 8.24025e-05 50.4287
2670 0.0417486 974.614 35.2328 8.24025e-05 50.389
2671 0.041831 974.719 35.3131 8.24025e-05 50.3495
2672 0.0419134 974.824 35.3934 8.24025e-05 50.3101
2673 0.0419958 974.928 35.4737 8.24025e-05 50.2709
2674 0.0420782 975.032 35.5541 8.24025e-05 50.2318
2675 0.0421606 975.135 35.6344 8.24025e-05 50.1928
2676 0.042243 975.237 35.7148 8.24025e-05 50.154
2677 0.0423254 975.339 35.7951 8.24025e-05 50.1153
2678 0.0424079 975.441 35.8755 8.24025e-05 50.0768
2679 0.0424903 975.542 35.9559 8.24025e-05 50.0384
2680 0.0425727 975.643 36.0363 8.24025e-05 50.0001
2681 0.0426551 975.743 36.1167 8.24025e-05 49.9619
2682 0.0427375 975.842 36.1971 9.06427e-05 49.9239
2683 0.0428281 975.951 36.2856 9.06427e-05 49.8823
2684 0.0429187 976.06 36.374 9.06427e-05 49.8408
2685 0.0430094 976.168 36.4625 9.06427e-05 49.7994
2686 0.0431 976.275 36.551 9.06427e-05 49.7582
2687 0.0431907 976.382 36.6395 9.06427e-05 49.7172
2688 0.0432813 976.488 36.728 9.06427e-05 49.6763
2689 0.043372 976.594 36.8165 9.06427e-05 49.6356
2690 0.0434626 976.699 36.905 9.06427e-05 49.5951
2691 0.0435532 976.803 36.9936 9.06427e-05 49.5547
2692 0.0436439 976.907 37.0821 9.06427e-05 49.5144
2693 0.0437345 977.01 37.1707 9.06427e-05 49.4743
2694 0.0438252 977.113 37.2592 9.06427e-05 49.4344
2695 0.0439158 977.215 37.3478 9.06427e-05 49.3946
2696 0.0440065 977.317 37.4364 9.06427e-05 49.355
2697 0.0440971 977.418 37.525 9.06427e-05 49.3155
2698 0.0441877 977.519 37.6136 9.06427e-05 49.2761
2699 0.0442784 977.619 37.7022 9.06427e-05 49.2369
2700 0.044369 977.719 37.7908 9.9707e-05 49.1979
2701 0.0444687 977.828 37.8883 9.9707e-05 49.1551
2702 0.0445684 977.936 37.9858 9.9707e-05 49.1125
2703 0.0446682 978.044 38.0833 9.9707e-05 49.0701
2704 0.0447679 978.151 38.1808 9.9707e-05 49.0279
2705 0.0448676 978.257 38.2784 9.9707e-05 48.9858
2706 0.0449673 978.363 38.3759 9.9707e-05 48.9439
2707 0.045067 978.469 38.4735 9.9707e-05 48.9022
2708 0.0451667 978.573 38.571 9.9707e-05 48.8607
2709 0.0452664 978.677 38.6686 9.9707e-05 48.8193
2710 0.0453661 978.781 38.7662 9.9707e-05 48.7781
2711 0.0454658 978.884 38.8638 9.9707e-05 48.7371
2712 0.0455655 978.986 38.9614 9.9707e-05 48.6962
2713 0.0456652 979.088 39.059 9.9707e-05 48.6555
2714 0.0457649 979.189 39.1566 9.9707e-05 48.615
2715 0.0458646 979.29 39.2543 9.9707e-05 48.5746
2716 0.0459643 979.39 39.3519 9.9707e-05 48.5344
2717 0.046064 979.489 39.4496 0.000109678 48.4944
2718 0.0461737 979.598 39.557 0.000109678 48.4505
2719 0.0462834 979.706 39.6645 0.000109678 48.4069
2720 0.0463931 979.813 39.7719 0.000109678 48.3634
2721 0.0465028 979.92 39.8794 0.000109678 48.3202
2722 0.0466124 980.026 39.9869 0.000109678 48.2771
2723 0.0467221 980.132 40.0944 0.000109678 48.2343
2724 0.0468318 980.236 40.2019 0.000109678 48.1916
2725 0.0469415 980.341 40.3094 0.000109678 48.1491
2726 0.0470511 980.444 40.4169 0.000109678 48.1068
2727 0.0471608 980.547 40.5245 0.000109678 48.0647
2728 0.0472705 980.649 40.632 0.000109678 48.0228
2729 0.0473802 980.751 40.7396 0.000109678 47.9811
2730 0.0474899 980.852 40.8471 0.000109678 47.9395
2731 0.0475995 980.952 40.9547 0.000109678 47.8982
2732 0.0477092 981.052 41.0623 0.000120645 47.857
2733 0.0478299 981.161 41.1807 0.000120645 47.8119
2734 0.0479505 981.269 41.2991 0.000120645 47.7671
2735 0.0480711 981.377 41.4175 0.000120645 47.7225
2736 0.0481918 981.484 41.5359 0.000120645 47.678
2737 0.0483124 981.59 41.6543 0.000120645 47.6338
2738 0.0484331 981.695 41.7727 0.000120645 47.5899
2739 0.0485537 981.8 41.8911 0.000120645 47.5461
2740 0.0486744 981.904 42.0096 0.000120645 47.5025
2741 0.048795 982.007 42.1281 0.000120645 47.4592
2742 0.0489157 982.11 42.2466 0.000120645 47.416
2743 0.0490363 982.212 42.365 0.000120645 47.3731
2744 0.049157 982.313 42.4836 0.000120645 47.3304
2745 0.0492776 982.414 42.6021 0.000120645 47.2879
2746 0.0493983 982.514 42.7206 0.00013271 47.2456
2747 0.049531 982.623 42.851 0.00013271 47.1993
2748 0.0496637 982.732 42.9814 0.00013271 47.1532
2749 0.0497964 982.839 43.1118 0.00013271 47.1074
2750 0.0499291 982.946 43.2423 0.00013271 47.0619
2751 0.0500618 983.052 43.3727 0.00013271 47.0165
2752 0.0501945 983.158 43.5032 0.00013271 46.9714
2753 0.0503272 983.262 43.6337 0.00013271 46.9266
2754 0.0504599 983.366 43.7642 0.00013271 46.882
2755 0.0505926 983.469 43.8947 0.00013271 46.8376
2756 0.0507254 983.572 44.0252 0.00013271 46.7935
2757 0.0508581 983.673 44.1557 0.00013271 46.7496
2758 0.0509908 983.774 44.2863 0.00013271 46.7059
2759 0.0511235 983.875 44.4169 0.00013271 46.6624
2760 0.0512562 983.974 44.5474 0.000145981 46.6192
2761 0.0514022 984.083 44.6911 0.000145981 46.5719
2762 0.0515482 984.191 44.8347 0.000145981 46.5249
2763 0.0516941 984.298 44.9784 0.000145981 46.4782
2764 0.0518401 984.404 45.1221 0.000145981 46.4317
2765 0.0519861 984.509 45.2658 0.000145981 46.3855
2766 0.0521321 984.613 45.4096 0.000145981 46.3396
2767 0.0522781 984.717 45.5533 0.000145981 46.2939
2768 0.052424 984.82 45.6971 0.000145981 46.2485
2769 0.05257 984.922 45.8408 0.000145981 46.2034
2770 0.052716 985.023 45.9846 0.000145981 46.1585
2771 0.052862 985.124 46.1284 0.000145981 46.1138
2772 0.053008 985.224 46.2722 0.000160579 46.0695
2773 0.0531685 985.333 46.4305 0.000160579 46.0209
2774 0.0533291 985.44 46.5887 0.000160579 45.9727
2775 0.0534897 985.548 46.7469 0.000160579 45.9248
2776 0.0536503 985.654 46.9052 0.000160579 45.8772
2777 0.0538109 985.759 47.0635 0.000160579 45.8298
2778 0.0539714 985.863 47.2218 0.000160579 45.7828
2779 0.054132 985.967 47.3801 0.000160579 45.7361
2780 0.0542926 986.069 47.5384 0.000160579 45.6896
2781 0.0544532 986.171 47.6968 0.000160579 45.6435
2782 0.0546138 986.272 47.8552 0.000160579 45.5976
2783 0.0547743 986.372 48.0135 0.000160579 45.552
2784 0.0549349 986.471 48.1719 0.000176637 45.5067
2785 0.0551115 986.58 48.3462 0.000176637 45.4572
2786 0.0552882 986.687 48.5205 0.000176637 45.4081
2787 0.0554648 986.793 48.6948 0.000176637 45.3592
2788 0.0556415 986.899 48.8691 0.000176637 45.3107
2789 0.0558181 987.003 49.0434 0.000176637 45.2626
2790 0.0559947 987.106 49.2178 0.000176637 45.2147
2791 0.0561714 987.209 49.3921 0.000176637 45.1672
2792 0.056348 987.311 49.5665 0.000176637 45.12
2793 0.0565246 987.411 49.7409 0.000176637 45.0731
2794 0.0567013 987.511 49.9153 0.000194301 45.0266
2795 0.0568956 987.62 50.1072 0.000194301 44.9757
2796 0.0570899 987.727 50.2991 0.000194301 44.9252
2797 0.0572842 987.834 50.4911 0.000194301 44.8751
2798 0.0574785 987.94 50.683 0.000194301 44.8254
2799 0.0576728 988.044 50.875 0.000194301 44.776
2800 0.0578671 988.148 51.067 0.000194301 44.727
2801 0.0580614 988.25 51.259 0.000194301 44.6784
2802 0.0582557 988.352 51.451 0.000194301 44.6301
2803 0.05845 988.452 51.643 0.000194301 44.5822
2804 0.0586443 988.552 51.8351 0.000213731 44.5346
2805 0.058858 988.66 52.0464 0.000213731 44.4827
2806 0.0590718 988.767 52.2577 0.000213731 44.4312
2807 0.0592855 988.873 52.4691 0.000213731 44.3801
2808 0.0594992 988.978 52.6804 0.000213731 44.3294
2809 0.0597129 989.082 52.8918 0.000213731 44.2792
2810 0.0599267 989.185 53.1032 0.000213731 44.2293
2811 0.0601404 989.287 53.3147 0.000213731 44.1798
2812 0.0603541 989.387 53.5261 0.000213731 44.1307
2813 0.0605679 989.487 53.7376 0.000235104 44.0821
2814 0.060803 989.595 53.9702 0.000235104 44.029
2815 0.0610381 989.702 54.2029 0.000235104 43.9763
2816 0.0612732 989.808 54.4356 0.000235104 43.9242
2817 0.0615083 989.913 54.6683 0.000235104 43.8725
2818 0.0617434 990.016 54.9011 0.000235104 43.8212
2819 0.0619785 990.119 55.1338 0.000235104 43.7704
2820 0.0622136 990.22 55.3666 0.000235104 43.7201
2821 0.0624487 990.32 55.5994 0.000258614 43.6701
2822 0.0627073 990.428 55.8556 0.000258614 43.6157
2823 0.0629659 990.536 56.1117 0.000258614 43.5618
2824 0.0632245 990.642 56.3679 0.000258614 43.5085
2825 0.0634832 990.746 56.6241 0.000258614 43.4556
2826 0.0637418 990.85 56.8803 0.000258614 43.4033
2827 0.0640004 990.952 57.1366 0.000258614 43.3514
2828 0.064259 991.052 57.3929 0.000258614 43.3001
2829 0.0645176 991.152 57.6492 0.000284476 43.2492
2830 0.0648021 991.26 57.9312 0.000284476 43.1938
2831 0.0650866 991.367 58.2132 0.000284476 43.139
2832 0.065371 991.472 58.4952 0.000284476 43.0847
2833 0.0656555 991.576 58.7773 0.000284476 43.031
2834 0.06594 991.678 59.0594 0.000284476 42.9779
2835 0.0662245 991.779 59.3415 0.000284476 42.9254
2836 0.0665089 991.879 59.6236 0.000312923 42.8733
2837 0.0668219 991.987 59.934 0.000312923 42.8168
2838 0.0671348 992.094 60.2445 0.000312923 42.7608
2839 0.0674477 992.199 60.5549 0.000312923 42.7055
2840 0.0677606 992.302 60.8654 0.000312923 42.6508
2841 0.0680736 992.404 61.176 0.000312923 42.5968
2842 0.0683865 992.505 61.4865 0.000312923 42.5433
2843 0.0686994 992.604 61.7971 0.000344216 42.4905
2844 0.0690436 992.711 62.1388 0.000344216 42.433
2845 0.0693878 992.817 62.4805 0.000344216 42.3763
2846 0.0697321 992.921 62.8223 0.000344216 42.3203
2847 0.0700763 993.023 63.1641 0.000344216 42.265
2848 0.0704205 993.124 63.5059 0.000344216 42.2104
2849 0.0707647 993.223 63.8478 0.000378637 42.1565
2850 0.0711433 993.33 64.2239 0.000378637 42.0979
2851 0.071522 993.436 64.6 0.000378637 42.0401
2852 0.0719006 993.539 64.9762 0.000378637 41.9831
2853 0.0722792 993.641 65.3524 0.000378637 41.9269
2854 0.0726579 993.741 65.7286 0.000378637 41.8715
2855 0.0730365 993.839 66.1049 0.000416501 41.8168
2856 0.073453 993.946 66.5189 0.000416501 41.7575
2857 0.0738695 994.05 66.9329 0.000416501 41.6991
2858 0.074286 994.152 67.3469 0.000416501 41.6415
2859 0.0747025 994.253 67.761 0.000416501 41.5848
2860 0.075119 994.351 68.1751 0.000458151 41.529
2861 0.0755772 994.458 68.6307 0.000458151 41.4685
2862 0.0760353 994.562 69.0864 0.000458151 41.409
2863 0.0764935 994.664 69.5421 0.000458151 41.3504
2864 0.0769516 994.764 69.9978 0.000458151 41.2928
2865 0.0774098 994.862 70.4536 0.000503966 41.2362
2866 0.0779137 994.968 70.955 0.000503966 41.1749
2867 0.0784177 995.071 71.4564 0.000503966 41.1148
2868 0.0789217 995.172 71.9579 0.000503966 41.0557
2869 0.0794256 995.271 72.4595 0.000554363 40.9977
2870 0.07998 995.377 73.0113 0.000554363 40.935
2871 0.0805344 995.481 73.5631 0.000554363 40.8736
2872 0.0810887 995.582 74.115 0.000554363 40.8133
2873 0.0816431 995.681 74.6669 0.000609799 40.7543
2874 0.0822529 995.787 75.2741 0.000609799 40.6906
2875 0.0828627 995.89 75.8814 0.000609799 40.6284
2876 0.0834725 995.99 76.4887 0.000609799 40.5674
2877 0.0840823 996.088 77.0961 0.000670779 40.5078
2878 0.0847531 996.193 77.7643 0.000670779 40.4436
2879 0.0854238 996.295 78.4325 0.000670779 40.381
2880 0.0860946 996.394 79.1008 0.000737857 40.3198
2881 0.0868325 996.499 79.8361 0.000737857 40.2541
2882 0.0875703 996.602 80.5714 0.000737857 40.1902
2883 0.0883082 996.701 81.3068 0.000811642 40.1279
2884 0.0891198 996.807 82.1158 0.000811642 40.0611
2885 0.0899315 996.909 82.9249 0.000811642 39.9963
2886 0.0907431 997.007 83.7341 0.000892807 39.9333
2887 0.0916359 997.112 84.6242 0.000892807 39.866
2888 0.0925287 997.213 85.5145 0.000892807 39.8008
2889 0.0934215 997.31 86.4049 0.000982087 39.7376
2890 0.0944036 997.413 87.3844 0.000982087 39.6704
2891 0.0953857 997.512 88.364 0.0010803 39.6054
2892 0.096466 997.616 89.4416 0.0010803 39.5365
2893 0.0975463 997.716 90.5194 0.00118833 39.4701
2894 0.0987346 997.82 91.7051 0.00118833 39.3999
2895 0.099923 997.92 92.8909 0.00130716 39.3326
2896 0.10123 998.024 94.1954 0.00130716 39.2617
2897 0.102537 998.123 95.5 0.00143787 39.194
2898 0.103975 998.225 96.9353 0.00143787 39.123
2899 0.105413 998.322 98.3707 0.00158166 39.0555
2900 0.106995 998.423 99.9497 0.00158166 38.9851
2901 0.108576 998.517 101.529 0.00173983 38.9184
2902 0.110316 998.614 103.266 0.00191381 38.8493
2903 0.11223 998.713 105.178 0.00210519 38.7779
2904 0.114335 998.814 107.28 0.00210519 38.7048
2905 0.11644 998.907 109.383 0.00231571 38.6368
2906 0.118756 999 111.696 0.00254728 38.5677
2907 0.121303 999.094 114.241 0.00280201 38.4978
2908 0.124105 999.186 117.041 0.00308221 38.4279
2909 0.127188 999.277 120.121 0.00339043 38.3585
2910 0.130578 999.365 123.509 0.00372947 38.2905
2911 0.134307 999.45 127.236 0.00410242 38.2245
2912 0.13841 999.529 131.336 0.00451266 38.1613
2913 0.142923 999.604 135.847 0.00496393 38.1017
2914 0.147886 999.672 140.809 0.00546032 38.0463
2915 0.153347 999.734 146.268 0.00600636 37.9958
2916 0.159353 999.788 152.273 0.00660699 37.9505
2917 0.16596 999.835 158.878 0.00726769 37.9108
2918 0.173228 999.875 166.145 0.00799446 37.8769
2919 0.181222 999.907 174.139 0.00879391 37.8486
2920 0.190016 999.934 182.932 0.0096733 37.8256
2921 0.19969 999.954 192.605 0.0106406 37.8077
2922 0.21033 999.969 203.245 0.0117047 37.794
2923 0.222035 999.98 214.949 0.0128752 37.7841
2924 0.23491 999.988 227.824 0.0141627 37.7772
2925 0.249073 999.993 241.987 0.0155789 37.7726
2926 0.264652 999.996 257.566 0.0171368 37.7697
2927 0.281788 999.998 274.702 0.0188505 37.7679
2928 0.300639 999.999 293.553 0.0207356 37.7669
2929 0.321375 1000 314.288 0.0228091 37.7664
2930 0.344184 1000 337.098 0.02509 37.7662


# Total time: 0.344184 s
# Total distance: 337.098 m