# Constants and Parameters

# Final flow velocity (u_f): 2000 (m/s) - The final velocity of the flow
# Initial particle velocity (u_0): 0 (m/s) - The initial velocity of the particle
# Particle radius (r_is): 1e-06 (m) - The radius of the particle
# Nozzle radius (r_n): 0.05 (m) - The radius of the nozzle
# Particle density (q): 7874 (kg/m^3) - The density of the particle
# Gas density (q_g): 1.2754 (kg/m^3) - The density of the gas
# Gas constant (R): 8.31446 (J/(kg*K)) - The specific gas constant
# Gamma: 1.4# Molar mass of air (M): 0.029 (kg/mol) - The molar mass of air
# Gas temperature (T): 300 (K) - The temperature of the gas
# Reference temperature (T_0): 291.15 (K) - The reference temperature for gas
# Reference viscosity (eta_0): 1.827e-05 (Pa*s) - The reference viscosity of the gas
# Specific heat capacity of the gas (Cp): 460 (J/(kg*K)) - The specific heat capacity of the gas
# Speed of sound (Sound speed): 347.011 (m/s) - The speed of sound in the gas
# Dynamic viscosity (Viscosity): 1.91093e-05 (Pa*s) - The dynamic viscosity of the gas






# iter real_time (s) velocity (m/s) distance (m)
0 0 0 0
1 5.05966e-05 3.80222 0.00019238
2 9.10739e-05 6.83927 0.000469214
3 0.000123456 9.26588 0.00076926
4 0.000149361 11.2052 0.00105954
5 0.000175267 13.1429 0.00140001
6 0.000201172 15.0787 0.00179063
7 0.000227078 17.0129 0.00223136
8 0.000252983 18.9453 0.00272214
9 0.000278888 20.876 0.00326295
10 0.000304794 22.805 0.00385372
11 0.000330699 24.7322 0.00449442
12 0.000356605 26.6578 0.005185
13 0.00038251 28.5816 0.00592542
14 0.000408416 30.5036 0.00671563
15 0.000434321 32.424 0.00755559
16 0.000460227 34.3427 0.00844525
17 0.000486132 36.2596 0.00938457
18 0.000512038 38.1748 0.0103735
19 0.000537943 40.0883 0.011412
20 0.000563848 42.0001 0.0125
21 0.000589754 43.9102 0.0136376
22 0.000615659 45.8186 0.0148245
23 0.000641565 47.7253 0.0160609
24 0.00066747 49.6302 0.0173466
25 0.000693376 51.5335 0.0186816
26 0.000719281 53.4351 0.0200658
27 0.000745187 55.3349 0.0214993
28 0.000771092 57.2331 0.0229819
29 0.000796998 59.1296 0.0245137
30 0.000822903 61.0244 0.0260946
31 0.000848808 62.9175 0.0277245
32 0.000874714 64.8089 0.0294034
33 0.000900619 66.6986 0.0311312
34 0.000926525 68.5866 0.032908
35 0.00095243 70.4729 0.0347336
36 0.000978336 72.3576 0.0366081
37 0.00100424 74.2406 0.0385313
38 0.00103015 76.1218 0.0405033
39 0.00105605 78.0015 0.042524
40 0.00108196 79.8794 0.0445933
41 0.00110786 81.7556 0.0467112
42 0.00113377 83.6302 0.0488777
43 0.00115967 85.5031 0.0510927
44 0.00118558 87.3743 0.0533562
45 0.00121148 89.2439 0.0556681
46 0.00123739 91.1118 0.0580283
47 0.0012633 92.978 0.060437
48 0.0012892 94.8426 0.0628939
49 0.00131511 96.7055 0.0653991
50 0.00134101 98.5667 0.0679525
51 0.00136692 100.426 0.0705541
52 0.00139282 102.284 0.0732038
53 0.00141873 104.14 0.0759017
54 0.00144463 105.995 0.0786475
55 0.00147054 107.848 0.0814414
56 0.00149644 109.699 0.0842832
57 0.00152235 111.549 0.0871729
58 0.00154826 113.397 0.0901105
59 0.00157416 115.243 0.0930959
60 0.00160007 117.088 0.0961291
61 0.00162597 118.931 0.0992101
62 0.00165188 120.772 0.102339
63 0.00167778 122.612 0.105515
64 0.00170369 124.45 0.108739
65 0.00172959 126.287 0.112011
66 0.0017555 128.122 0.11533
67 0.0017814 129.955 0.118696
68 0.00180731 131.786 0.12211
69 0.00183322 133.616 0.125571
70 0.00185912 135.445 0.12908
71 0.00188503 137.271 0.132636
72 0.00191093 139.096 0.13624
73 0.00193684 140.92 0.13989
74 0.00196274 142.741 0.143588
75 0.00198865 144.562 0.147333
76 0.00201455 146.38 0.151125
77 0.00204046 148.197 0.154964
78 0.00206636 150.012 0.15885
79 0.00209227 151.826 0.162783
80 0.00211818 153.638 0.166763
81 0.00214408 155.449 0.17079
82 0.00216999 157.257 0.174864
83 0.00219589 159.065 0.178985
84 0.0022218 160.87 0.183152
85 0.0022477 162.674 0.187366
86 0.00227361 164.477 0.191627
87 0.00229951 166.277 0.195935
88 0.00232542 168.077 0.200289
89 0.00235132 169.874 0.20469
90 0.00237723 171.67 0.209137
91 0.00240314 173.465 0.21363
92 0.00242904 175.257 0.218171
93 0.00245495 177.049 0.222757
94 0.00248085 178.838 0.22739
95 0.00250676 180.626 0.232069
96 0.00253266 182.413 0.236795
97 0.00255857 184.197 0.241566
98 0.00258447 185.981 0.246384
99 0.00261038 187.762 0.251248
100 0.00263628 189.542 0.256159
101 0.00266219 191.321 0.261115
102 0.0026881 193.098 0.266117
103 0.002714 194.873 0.271165
104 0.00273991 196.647 0.27626
105 0.00276581 198.419 0.2814
106 0.00279172 200.189 0.286586
107 0.00281762 201.958 0.291818
108 0.00284353 203.726 0.297095
109 0.00286943 205.492 0.302419
110 0.00289534 207.256 0.307788
111 0.00292125 209.019 0.313202
112 0.00294715 210.78 0.318663
113 0.00297306 212.539 0.324169
114 0.00299896 214.297 0.32972
115 0.00302487 216.054 0.335317
116 0.00305077 217.809 0.340959
117 0.00307668 219.562 0.346647
118 0.00310258 221.314 0.352381
119 0.00312849 223.064 0.358159
120 0.00315439 224.813 0.363983
121 0.0031803 226.56 0.369852
122 0.00320621 228.305 0.375767
123 0.00323211 230.049 0.381726
124 0.00325802 231.792 0.387731
125 0.00328392 233.533 0.39378
126 0.00330983 235.272 0.399875
127 0.00333573 237.01 0.406015
128 0.00336164 238.746 0.4122
129 0.00338754 240.481 0.41843
130 0.00341345 242.214 0.424704
131 0.00343935 243.945 0.431024
132 0.00346526 245.675 0.437388
133 0.00349117 247.404 0.443797
134 0.00351707 249.131 0.450251
135 0.00354298 250.856 0.45675
136 0.00356888 252.58 0.463293
137 0.00359479 254.303 0.469881
138 0.00362069 256.024 0.476513
139 0.0036466 257.743 0.48319
140 0.0036725 259.461 0.489912
141 0.00369841 261.177 0.496678
142 0.00372431 262.892 0.503488
143 0.00375022 264.605 0.510343
144 0.00377613 266.317 0.517242
145 0.00380203 268.027 0.524185
146 0.00382794 269.736 0.531173
147 0.00385384 271.443 0.538204
148 0.00387975 273.149 0.545281
149 0.00390565 274.853 0.552401
150 0.00393156 276.555 0.559565
151 0.00395746 278.256 0.566773
152 0.00398337 279.956 0.574026
153 0.00400927 281.654 0.581322
154 0.00403518 283.351 0.588662
155 0.00406109 285.046 0.596047
156 0.00408699 286.739 0.603475
157 0.0041129 288.431 0.610947
158 0.0041388 290.122 0.618462
159 0.00416471 291.811 0.626022
160 0.00419061 293.499 0.633625
161 0.00421652 295.185 0.641272
162 0.00424242 296.869 0.648963
163 0.00426833 298.552 0.656697
164 0.00429423 300.234 0.664474
165 0.00432014 301.914 0.672296
166 0.00434605 303.593 0.68016
167 0.00437195 305.27 0.688069
168 0.00439786 306.945 0.69602
169 0.00442376 308.619 0.704015
170 0.00444967 310.292 0.712053
171 0.00447557 311.963 0.720135
172 0.00450148 313.633 0.72826
173 0.00452738 315.301 0.736428
174 0.00455329 316.968 0.744639
175 0.00457919 318.633 0.752893
176 0.0046051 320.297 0.761191
177 0.00463101 321.959 0.769531
178 0.00465691 323.62 0.777915
179 0.00468282 325.279 0.786341
180 0.00470872 326.937 0.794811
181 0.00473463 328.594 0.803323
182 0.00476053 330.249 0.811878
183 0.00478644 331.902 0.820476
184 0.00481234 333.554 0.829117
185 0.00483825 335.205 0.837801
186 0.00486415 336.854 0.846527
187 0.00489006 338.501 0.855296
188 0.00491597 340.147 0.864108
189 0.00494187 341.792 0.872962
190 0.00496778 343.435 0.881859
191 0.00499368 345.077 0.890798
192 0.00501959 346.717 0.89978
193 0.00504549 348.356 0.908805
194 0.0050714 349.994 0.917871
195 0.0050973 351.63 0.92698
196 0.00512321 353.264 0.936132
197 0.00514911 354.897 0.945326
198 0.00517502 356.529 0.954562
199 0.00520093 358.159 0.96384
200 0.00522683 359.788 0.97316
201 0.00525274 361.415 0.982523
202 0.00527864 363.041 0.991928
203 0.00530455 364.666 1.00137
204 0.00533045 366.289 1.01086
205 0.00535636 367.91 1.02039
206 0.00538226 369.53 1.02997
207 0.00540817 371.149 1.03958
208 0.00543407 372.766 1.04924
209 0.00545998 374.382 1.05894
210 0.00548589 375.996 1.06868
211 0.00551179 377.609 1.07846
212 0.0055377 379.221 1.08828
213 0.0055636 380.831 1.09815
214 0.00558951 382.44 1.10806
215 0.00561541 384.047 1.11801
216 0.00564132 385.653 1.128
217 0.00566722 387.257 1.13803
218 0.00569313 388.86 1.1481
219 0.00571903 390.462 1.15822
220 0.00574494 392.062 1.16837
221 0.00577085 393.661 1.17857
222 0.00579675 395.258 1.18881
223 0.00582266 396.854 1.19909
224 0.00584856 398.448 1.20941
225 0.00587447 400.042 1.21978
226 0.00590037 401.633 1.23018
227 0.00592628 403.224 1.24063
228 0.00595218 404.812 1.25111
229 0.00597809 406.4 1.26164
230 0.00600399 407.986 1.27221
231 0.0060299 409.571 1.28282
232 0.00605581 411.154 1.29347
233 0.00608171 412.736 1.30416
234 0.00610762 414.316 1.3149
235 0.00613352 415.895 1.32567
236 0.00615943 417.473 1.33649
237 0.00618533 419.049 1.34734
238 0.00621124 420.624 1.35824
239 0.00623714 422.198 1.36918
240 0.00626305 423.77 1.38015
241 0.00628895 425.341 1.39117
242 0.00631486 426.91 1.40223
243 0.00634077 428.478 1.41333
244 0.00636667 430.045 1.42447
245 0.00639258 431.61 1.43565
246 0.00641848 433.174 1.44687
247 0.00644439 434.736 1.45814
248 0.00647029 436.297 1.46944
249 0.0064962 437.857 1.48078
250 0.0065221 439.415 1.49216
251 0.00654801 440.972 1.50359
252 0.00657391 442.527 1.51505
253 0.00659982 444.082 1.52656
254 0.00662573 445.634 1.5381
255 0.00665163 447.186 1.54969
256 0.00667754 448.736 1.56131
257 0.00670344 450.285 1.57297
258 0.00672935 451.832 1.58468
259 0.00675525 453.378 1.59642
260 0.00678116 454.923 1.60821
261 0.00680706 456.466 1.62003
262 0.00683297 458.008 1.6319
263 0.00685887 459.548 1.6438
264 0.00688478 461.087 1.65575
265 0.00691069 462.625 1.66773
266 0.00693659 464.162 1.67976
267 0.0069625 465.697 1.69182
268 0.0069884 467.23 1.70393
269 0.00701431 468.763 1.71607
270 0.00704021 470.294 1.72825
271 0.00706612 471.824 1.74048
272 0.00709202 473.352 1.75274
273 0.00711793 474.879 1.76504
274 0.00714383 476.405 1.77738
275 0.00716974 477.929 1.78976
276 0.00719565 479.452 1.80218
277 0.00722155 480.973 1.81464
278 0.00724746 482.494 1.82714
279 0.00727336 484.013 1.83968
280 0.00729927 485.53 1.85226
281 0.00732517 487.047 1.86487
282 0.00735108 488.561 1.87753
283 0.00737698 490.075 1.89023
284 0.00740289 491.587 1.90296
285 0.00742879 493.098 1.91574
286 0.0074547 494.608 1.92855
287 0.00748061 496.116 1.9414
288 0.00750651 497.623 1.95429
289 0.00753242 499.129 1.96722
290 0.00755832 500.633 1.98019
291 0.00758423 502.136 1.9932
292 0.00761013 503.638 2.00625
293 0.00763604 505.138 2.01933
294 0.00766194 506.637 2.03246
295 0.00768785 508.135 2.04562
296 0.00771375 509.631 2.05882
297 0.00773966 511.126 2.07206
298 0.00776557 512.62 2.08534
299 0.00779147 514.112 2.09866
300 0.00781738 515.603 2.11202
301 0.00784328 517.093 2.12541
302 0.00786919 518.582 2.13885
303 0.00789509 520.069 2.15232
304 0.007921 521.555 2.16583
305 0.0079469 523.039 2.17938
306 0.00797281 524.523 2.19297
307 0.00799871 526.005 2.2066
308 0.00802462 527.485 2.22026
309 0.00805053 528.965 2.23396
310 0.00807643 530.443 2.2477
311 0.00810234 531.919 2.26148
312 0.00812824 533.395 2.2753
313 0.00815415 534.869 2.28916
314 0.00818005 536.342 2.30305
315 0.00820596 537.814 2.31698
316 0.00823186 539.284 2.33096
317 0.00825777 540.753 2.34496
318 0.00828367 542.221 2.35901
319 0.00830958 543.687 2.37309
320 0.00833549 545.152 2.38722
321 0.00836139 546.616 2.40138
322 0.0083873 548.078 2.41558
323 0.0084132 549.54 2.42981
324 0.00843911 551 2.44409
325 0.00846501 552.458 2.4584
326 0.00849092 553.916 2.47275
327 0.00851682 555.372 2.48713
328 0.00854273 556.827 2.50156
329 0.00856863 558.28 2.51602
330 0.00859454 559.733 2.53052
331 0.00862045 561.184 2.54506
332 0.00864635 562.634 2.55963
333 0.00867226 564.082 2.57425
334 0.00869816 565.529 2.5889
335 0.00872407 566.975 2.60359
336 0.00874997 568.42 2.61831
337 0.00877588 569.863 2.63307
338 0.00880178 571.306 2.64787
339 0.00882769 572.746 2.66271
340 0.00885359 574.186 2.67758
341 0.0088795 575.624 2.6925
342 0.00890541 577.062 2.70745
343 0.00893131 578.497 2.72243
344 0.00895722 579.932 2.73746
345 0.00898312 581.365 2.75252
346 0.00900903 582.797 2.76761
347 0.00903493 584.228 2.78275
348 0.00906084 585.658 2.79792
349 0.00908674 587.086 2.81313
350 0.00911265 588.513 2.82837
351 0.00913855 589.939 2.84366
352 0.00916446 591.364 2.85898
353 0.00919037 592.787 2.87433
354 0.00921627 594.209 2.88973
355 0.00924218 595.63 2.90516
356 0.00926808 597.049 2.92062
357 0.00929399 598.468 2.93613
358 0.00931989 599.885 2.95167
359 0.0093458 601.301 2.96724
360 0.0093717 602.715 2.98286
361 0.00939761 604.129 2.99851
362 0.00942351 605.541 3.01419
363 0.00944942 606.952 3.02992
364 0.00947533 608.361 3.04568
365 0.00950123 609.77 3.06147
366 0.00952714 611.177 3.07731
367 0.00955304 612.583 3.09318
368 0.00957895 613.988 3.10908
369 0.00960485 615.391 3.12502
370 0.00963076 616.793 3.141
371 0.00965666 618.195 3.15702
372 0.00968257 619.594 3.17307
373 0.00970847 620.993 3.18915
374 0.00973438 622.39 3.20528
375 0.00976029 623.787 3.22144
376 0.00978619 625.182 3.23763
377 0.0098121 626.575 3.25386
378 0.009838 627.968 3.27013
379 0.00986391 629.359 3.28644
380 0.00988981 630.749 3.30278
381 0.00991572 632.138 3.31915
382 0.00994162 633.526 3.33556
383 0.00996753 634.912 3.35201
384 0.00999343 636.297 3.3685
385 0.0100193 637.681 3.38501
386 0.0100452 639.064 3.40157
387 0.0100712 640.446 3.41816
388 0.0100971 641.826 3.43479
389 0.010123 643.205 3.45145
390 0.0101489 644.583 3.46815
391 0.0101748 645.96 3.48488
392 0.0102007 647.336 3.50165
393 0.0102266 648.71 3.51846
394 0.0102525 650.083 3.5353
395 0.0102784 651.455 3.55217
396 0.0103043 652.826 3.56909
397 0.0103302 654.196 3.58603
398 0.0103561 655.564 3.60302
399 0.010382 656.931 3.62003
400 0.0104079 658.297 3.63709
401 0.0104338 659.662 3.65418
402 0.0104597 661.026 3.6713
403 0.0104856 662.388 3.68846
404 0.0105115 663.749 3.70565
405 0.0105374 665.109 3.72288
406 0.0105634 666.468 3.74015
407 0.0105893 667.826 3.75745
408 0.0106152 669.182 3.77479
409 0.0106411 670.538 3.79216
410 0.010667 671.892 3.80956
411 0.0106929 673.245 3.827
412 0.0107188 674.597 3.84448
413 0.0107447 675.947 3.86199
414 0.0107706 677.297 3.87953
415 0.0107965 678.645 3.89711
416 0.0108224 679.992 3.91473
417 0.0108483 681.338 3.93238
418 0.0108742 682.683 3.95007
419 0.0109001 684.026 3.96779
420 0.010926 685.368 3.98554
421 0.0109519 686.71 4.00333
422 0.0109778 688.05 4.02115
423 0.0110037 689.389 4.03901
424 0.0110297 690.726 4.05691
425 0.0110556 692.063 4.07484
426 0.0110815 693.398 4.0928
427 0.0111074 694.733 4.1108
428 0.0111333 696.066 4.12883
429 0.0111592 697.398 4.14689
430 0.0111851 698.728 4.16499
431 0.011211 700.058 4.18313
432 0.0112369 701.386 4.2013
433 0.0112628 702.714 4.2195
434 0.0112887 704.04 4.23774
435 0.0113146 705.365 4.25602
436 0.0113405 706.689 4.27432
437 0.0113664 708.011 4.29266
438 0.0113923 709.333 4.31104
439 0.0114182 710.653 4.32945
440 0.0114441 711.972 4.34789
441 0.01147 713.29 4.36637
442 0.011496 714.607 4.38488
443 0.0115219 715.923 4.40343
444 0.0115478 717.238 4.42201
445 0.0115737 718.551 4.44062
446 0.0115996 719.864 4.45927
447 0.0116255 721.175 4.47796
448 0.0116514 722.485 4.49667
449 0.0116773 723.794 4.51542
450 0.0117032 725.102 4.53421
451 0.0117291 726.408 4.55302
452 0.011755 727.714 4.57188
453 0.0117809 729.018 4.59076
454 0.0118068 730.322 4.60968
455 0.0118327 731.624 4.62863
456 0.0118586 732.925 4.64762
457 0.0118845 734.225 4.66664
458 0.0119104 735.523 4.68569
459 0.0119363 736.821 4.70478
460 0.0119622 738.117 4.7239
461 0.0119882 739.413 4.74306
462 0.0120141 740.707 4.76225
463 0.01204 742 4.78147
464 0.0120659 743.292 4.80072
465 0.0120918 744.583 4.82001
466 0.0121177 745.873 4.83933
467 0.0121436 747.162 4.85869
468 0.0121695 748.449 4.87808
469 0.0121954 749.736 4.8975
470 0.0122213 751.021 4.91696
471 0.0122472 752.305 4.93645
472 0.0122731 753.588 4.95597
473 0.012299 754.87 4.97552
474 0.0123249 756.151 4.99511
475 0.0123508 757.431 5.01473
476 0.0123767 758.709 5.03439
477 0.0124026 759.987 5.05408
478 0.0124285 761.263 5.0738
479 0.0124545 762.539 5.09355
480 0.0124804 763.813 5.11334
481 0.0125063 765.086 5.13316
482 0.0125322 766.358 5.15301
483 0.0125581 767.629 5.1729
484 0.012584 768.899 5.19281
485 0.0126099 770.167 5.21277
486 0.0126358 771.435 5.23275
487 0.0126617 772.701 5.25277
488 0.0126876 773.967 5.27282
489 0.0127135 775.231 5.2929
490 0.0127394 776.494 5.31302
491 0.0127653 777.757 5.33316
492 0.0127912 779.018 5.35334
493 0.0128171 780.278 5.37356
494 0.012843 781.536 5.3938
495 0.0128689 782.794 5.41408
496 0.0128948 784.051 5.43439
497 0.0129208 785.307 5.45474
498 0.0129467 786.561 5.47511
499 0.0129726 787.815 5.49552
500 0.0129985 789.067 5.51596
501 0.0130244 790.318 5.53644
502 0.0130503 791.568 5.55694
503 0.0130762 792.817 5.57748
504 0.0131021 794.066 5.59805
505 0.013128 795.312 5.61866
506 0.0131539 796.558 5.63929
507 0.0131798 797.803 5.65996
508 0.0132057 799.047 5.68066
509 0.0132316 800.29 5.70139
510 0.0132575 801.531 5.72215
511 0.0132834 802.772 5.74295
512 0.0133093 804.011 5.76378
513 0.0133352 805.249 5.78464
514 0.0133611 806.487 5.80553
515 0.013387 807.723 5.82646
516 0.013413 808.958 5.84741
517 0.0134389 810.192 5.8684
518 0.0134648 811.425 5.88942
519 0.0134907 812.657 5.91047
520 0.0135166 813.888 5.93156
521 0.0135425 815.118 5.95267
522 0.0135684 816.347 5.97382
523 0.0135943 817.575 5.995
524 0.0136202 818.801 6.01621
525 0.0136461 820.027 6.03745
526 0.013672 821.251 6.05873
527 0.0136979 822.475 6.08004
528 0.0137238 823.697 6.10137
529 0.0137497 824.919 6.12274
530 0.0137756 826.139 6.14415
531 0.0138015 827.358 6.16558
532 0.0138274 828.577 6.18704
533 0.0138533 829.794 6.20854
534 0.0138793 831.01 6.23007
535 0.0139052 832.225 6.25163
536 0.0139311 833.439 6.27322
537 0.013957 834.652 6.29484
538 0.0139829 835.864 6.31649
539 0.0140088 837.075 6.33818
540 0.0140347 838.285 6.35989
541 0.0140606 839.494 6.38164
542 0.0140865 840.702 6.40342
543 0.0141124 841.908 6.42523
544 0.0141383 843.114 6.44707
545 0.0141642 844.319 6.46894
546 0.0141901 845.523 6.49085
547 0.014216 846.725 6.51278
548 0.0142419 847.927 6.53475
549 0.0142678 849.127 6.55675
550 0.0142937 850.327 6.57877
551 0.0143196 851.525 6.60083
552 0.0143456 852.723 6.62292
553 0.0143715 853.919 6.64504
554 0.0143974 855.115 6.6672
555 0.0144233 856.309 6.68938
556 0.0144492 857.502 6.71159
557 0.0144751 858.695 6.73384
558 0.014501 859.886 6.75611
559 0.0145269 861.076 6.77842
560 0.0145528 862.266 6.80076
561 0.0145787 863.454 6.82313
562 0.0146046 864.641 6.84552
563 0.0146305 865.827 6.86795
564 0.0146564 867.012 6.89041
565 0.0146823 868.197 6.91291
566 0.0147082 869.38 6.93543
567 0.0147341 870.562 6.95798
568 0.01476 871.743 6.98056
569 0.0147859 872.923 7.00318
570 0.0148118 874.102 7.02582
571 0.0148378 875.28 7.04849
572 0.0148637 876.457 7.0712
573 0.0148896 877.633 7.09394
574 0.0149155 878.809 7.1167
575 0.0149414 879.983 7.1395
576 0.0149673 881.156 7.16232
577 0.0149932 882.328 7.18518
578 0.0150191 883.499 7.20807
579 0.015045 884.669 7.23099
580 0.0150709 885.838 7.25393
581 0.0150968 887.006 7.27691
582 0.0151227 888.173 7.29992
583 0.0151486 889.339 7.32296
584 0.0151745 890.504 7.34603
585 0.0152004 891.668 7.36913
586 0.0152263 892.831 7.39226
587 0.0152522 893.993 7.41542
588 0.0152781 895.154 7.43861
589 0.0153041 896.314 7.46183
590 0.01533 897.473 7.48507
591 0.0153559 898.631 7.50835
592 0.0153818 899.789 7.53166
593 0.0154077 900.945 7.555
594 0.0154336 902.1 7.57837
595 0.0154595 903.254 7.60177
596 0.0154854 904.407 7.6252
597 0.0155113 905.559 7.64866
598 0.0155372 906.71 7.67215
599 0.0155631 907.861 7.69567
600 0.015589 909.01 7.71922
601 0.0156149 910.158 7.74279
602 0.0156408 911.305 7.7664
603 0.0156667 912.451 7.79004
604 0.0156926 913.597 7.81371
605 0.0157185 914.741 7.8374
606 0.0157444 915.884 7.86113
607 0.0157704 917.027 7.88488
608 0.0157963 918.168 7.90867
609 0.0158222 919.309 7.93249
610 0.0158481 920.448 7.95633
611 0.015874 921.586 7.9802
612 0.0158999 922.724 8.00411
613 0.0159258 923.86 8.02804
614 0.0159517 924.996 8.052
615 0.0159776 926.131 8.076
616 0.0160035 927.264 8.10002
617 0.0160294 928.397 8.12407
618 0.0160553 929.529 8.14815
619 0.0160812 930.659 8.17226
620 0.0161071 931.789 8.19639
621 0.016133 932.918 8.22056
622 0.0161589 934.046 8.24476
623 0.0161848 935.172 8.26898
624 0.0162107 936.298 8.29324
625 0.0162366 937.423 8.31752
626 0.0162626 938.547 8.34184
627 0.0162885 939.67 8.36618
628 0.0163144 940.792 8.39055
629 0.0163403 941.914 8.41495
630 0.0163662 943.034 8.43938
631 0.0163921 944.153 8.46384
632 0.016418 945.271 8.48833
633 0.0164439 946.389 8.51285
634 0.0164698 947.505 8.53739
635 0.0164957 948.62 8.56197
636 0.0165216 949.735 8.58657
637 0.0165475 950.848 8.6112
638 0.0165734 951.961 8.63586
639 0.0165993 953.073 8.66055
640 0.0166252 954.183 8.68527
641 0.0166511 955.293 8.71002
642 0.016677 956.402 8.73479
643 0.0167029 957.51 8.7596
644 0.0167289 958.617 8.78443
645 0.0167548 959.722 8.80929
646 0.0167807 960.828 8.83418
647 0.0168066 961.932 8.8591
648 0.0168325 963.035 8.88405
649 0.0168584 964.137 8.90903
650 0.0168843 965.238 8.93403
651 0.0169102 966.339 8.95907
652 0.0169361 967.438 8.98413
653 0.016962 968.537 9.00922
654 0.0169879 969.634 9.03434
655 0.0170138 970.731 9.05948
656 0.0170397 971.826 9.08466
657 0.0170656 972.921 9.10986
658 0.0170915 974.015 9.1351
659 0.0171174 975.108 9.16036
660 0.0171433 976.2 9.18565
661 0.0171692 977.291 9.21096
662 0.0171952 978.381 9.23631
663 0.0172211 979.47 9.26168
664 0.017247 980.559 9.28708
665 0.0172729 981.646 9.31251
666 0.0172988 982.732 9.33797
667 0.0173247 983.818 9.36346
668 0.0173506 984.902 9.38897
669 0.0173765 985.986 9.41452
670 0.0174024 987.069 9.44009
671 0.0174283 988.151 9.46568
672 0.0174542 989.232 9.49131
673 0.0174801 990.312 9.51697
674 0.017506 991.391 9.54265
675 0.0175319 992.469 9.56836
676 0.0175578 993.546 9.5941
677 0.0175837 994.623 9.61986
678 0.0176096 995.698 9.64566
679 0.0176355 996.773 9.67148
680 0.0176614 997.846 9.69733
681 0.0176874 998.919 9.72321
682 0.0177133 999.991 9.74911
683 0.0177392 1001.06 9.77504
684 0.0177651 1002.13 9.801
685 0.017791 1003.2 9.82699
686 0.0178169 1004.27 9.85301
687 0.0178428 1005.34 9.87905
688 0.0178687 1006.4 9.90512
689 0.0178946 1007.47 9.93122
690 0.0179205 1008.53 9.95735
691 0.0179464 1009.6 9.9835
692 0.0179723 1010.66 10.0097
693 0.0179982 1011.72 10.0359
694 0.0180241 1012.78 10.0621
695 0.01805 1013.84 10.0884
696 0.0180759 1014.9 10.1147
697 0.0181018 1015.96 10.141
698 0.0181277 1017.02 10.1674
699 0.0181537 1018.07 10.1937
700 0.0181796 1019.13 10.2201
701 0.0182055 1020.18 10.2466
702 0.0182314 1021.24 10.273
703 0.0182573 1022.29 10.2995
704 0.0182832 1023.34 10.326
705 0.0183091 1024.39 10.3525
706 0.018335 1025.45 10.3791
707 0.0183609 1026.49 10.4057
708 0.0183868 1027.54 10.4323
709 0.0184127 1028.59 10.459
710 0.0184386 1029.64 10.4856
711 0.0184645 1030.68 10.5123
712 0.0184904 1031.73 10.5391
713 0.0185163 1032.77 10.5658
714 0.0185422 1033.82 10.5926
715 0.0185681 1034.86 10.6194
716 0.018594 1035.9 10.6462
717 0.01862 1036.94 10.6731
718 0.0186459 1037.98 10.7
719 0.0186718 1039.02 10.7269
720 0.0186977 1040.06 10.7539
721 0.0187236 1041.09 10.7808
722 0.0187495 1042.13 10.8078
723 0.0187754 1043.17 10.8348
724 0.0188013 1044.2 10.8619
725 0.0188272 1045.23 10.889
726 0.0188531 1046.27 10.9161
727 0.018879 1047.3 10.9432
728 0.0189049 1048.33 10.9704
729 0.0189308 1049.36 10.9975
730 0.0189567 1050.39 11.0248
731 0.0189826 1051.42 11.052
732 0.0190085 1052.45 11.0793
733 0.0190344 1053.47 11.1066
734 0.0190603 1054.5 11.1339
735 0.0190862 1055.52 11.1612
736 0.0191122 1056.55 11.1886
737 0.0191381 1057.57 11.216
738 0.019164 1058.59 11.2434
739 0.0191899 1059.62 11.2709
740 0.0192158 1060.64 11.2983
741 0.0192417 1061.66 11.3258
742 0.0192676 1062.67 11.3534
743 0.0192935 1063.69 11.3809
744 0.0193194 1064.71 11.4085
745 0.0193453 1065.73 11.4361
746 0.0193712 1066.74 11.4637
747 0.0193971 1067.76 11.4914
748 0.019423 1068.77 11.5191
749 0.0194489 1069.78 11.5468
750 0.0194748 1070.8 11.5745
751 0.0195007 1071.81 11.6023
752 0.0195266 1072.82 11.6301
753 0.0195525 1073.83 11.6579
754 0.0195785 1074.84 11.6858
755 0.0196044 1075.84 11.7136
756 0.0196303 1076.85 11.7415
757 0.0196562 1077.86 11.7695
758 0.0196821 1078.86 11.7974
759 0.019708 1079.87 11.8254
760 0.0197339 1080.87 11.8534
761 0.0197598 1081.88 11.8814
762 0.0197857 1082.88 11.9095
763 0.0198116 1083.88 11.9375
764 0.0198375 1084.88 11.9656
765 0.0198634 1085.88 11.9938
766 0.0198919 1086.98 12.0247
767 0.0199204 1088.07 12.0557
768 0.0199489 1089.17 12.0868
769 0.0199774 1090.27 12.1179
770 0.0200059 1091.36 12.149
771 0.0200344 1092.46 12.1801
772 0.0200629 1093.55 12.2112
773 0.0200914 1094.64 12.2424
774 0.0201199 1095.73 12.2737
775 0.0201484 1096.82 12.3049
776 0.0201769 1097.91 12.3362
777 0.0202054 1099 12.3675
778 0.0202339 1100.08 12.3989
779 0.0202624 1101.17 12.4302
780 0.0202909 1102.25 12.4617
781 0.0203193 1103.34 12.4931
782 0.0203478 1104.42 12.5246
783 0.0203763 1105.5 12.5561
784 0.0204048 1106.58 12.5876
785 0.0204333 1107.66 12.6192
786 0.0204618 1108.74 12.6508
787 0.0204903 1109.82 12.6824
788 0.0205188 1110.89 12.714
789 0.0205473 1111.97 12.7457
790 0.0205758 1113.04 12.7774
791 0.0206043 1114.12 12.8092
792 0.0206328 1115.19 12.841
793 0.0206613 1116.26 12.8728
794 0.0206898 1117.33 12.9046
795 0.0207183 1118.4 12.9365
796 0.0207468 1119.47 12.9684
797 0.0207753 1120.54 13.0003
798 0.0208038 1121.61 13.0323
799 0.0208323 1122.67 13.0643
800 0.0208608 1123.74 13.0963
801 0.0208893 1124.8 13.1283
802 0.0209178 1125.86 13.1604
803 0.0209463 1126.93 13.1925
804 0.0209748 1127.99 13.2247
805 0.0210033 1129.05 13.2569
806 0.0210317 1130.11 13.2891
807 0.0210602 1131.16 13.3213
808 0.0210887 1132.22 13.3536
809 0.0211172 1133.28 13.3859
810 0.0211457 1134.33 13.4182
811 0.0211742 1135.39 13.4505
812 0.0212027 1136.44 13.4829
813 0.0212312 1137.49 13.5153
814 0.0212597 1138.54 13.5478
815 0.0212882 1139.59 13.5802
816 0.0213167 1140.64 13.6128
817 0.0213452 1141.69 13.6453
818 0.0213737 1142.74 13.6779
819 0.0214022 1143.79 13.7104
820 0.0214307 1144.83 13.7431
821 0.0214592 1145.88 13.7757
822 0.0214877 1146.92 13.8084
823 0.0215162 1147.96 13.8411
824 0.0215447 1149 13.8739
825 0.0215732 1150.05 13.9066
826 0.0216017 1151.09 13.9394
827 0.0216302 1152.12 13.9723
828 0.0216587 1153.16 14.0051
829 0.0216872 1154.2 14.038
830 0.0217157 1155.24 14.0709
831 0.0217441 1156.27 14.1039
832 0.0217726 1157.31 14.1369
833 0.0218011 1158.34 14.1699
834 0.0218296 1159.37 14.2029
835 0.0218581 1160.4 14.236
836 0.0218866 1161.43 14.2691
837 0.0219151 1162.46 14.3022
838 0.0219436 1163.49 14.3353
839 0.0219721 1164.52 14.3685
840 0.0220006 1165.55 14.4017
841 0.0220291 1166.57 14.435
842 0.0220576 1167.6 14.4683
843 0.0220861 1168.62 14.5016
844 0.0221146 1169.64 14.5349
845 0.0221431 1170.67 14.5683
846 0.0221716 1171.69 14.6016
847 0.0222001 1172.71 14.6351
848 0.0222286 1173.73 14.6685
849 0.0222571 1174.75 14.702
850 0.0222856 1175.76 14.7355
851 0.0223141 1176.78 14.769
852 0.0223426 1177.8 14.8026
853 0.0223711 1178.81 14.8362
854 0.0223996 1179.83 14.8698
855 0.0224281 1180.84 14.9034
856 0.0224565 1181.85 14.9371
857 0.022485 1182.86 14.9708
858 0.0225135 1183.87 15.0046
859 0.022542 1184.88 15.0383
860 0.0225705 1185.89 15.0721
861 0.022599 1186.9 15.1059
862 0.0226275 1187.9 15.1398
863 0.022656 1188.91 15.1737
864 0.0226845 1189.91 15.2076
865 0.022713 1190.92 15.2415
866 0.0227415 1191.92 15.2755
867 0.02277 1192.92 15.3095
868 0.0227985 1193.92 15.3435
869 0.022827 1194.92 15.3775
870 0.0228555 1195.92 15.4116
871 0.0228868 1197.02 15.4491
872 0.0229182 1198.12 15.4867
873 0.0229495 1199.21 15.5243
874 0.0229809 1200.31 15.5619
875 0.0230122 1201.4 15.5996
876 0.0230436 1202.5 15.6373
877 0.0230749 1203.59 15.675
878 0.0231063 1204.68 15.7128
879 0.0231376 1205.77 15.7506
880 0.0231689 1206.86 15.7884
881 0.0232003 1207.94 15.8262
882 0.0232316 1209.03 15.8641
883 0.023263 1210.12 15.9021
884 0.0232943 1211.2 15.94
885 0.0233257 1212.28 15.978
886 0.023357 1213.36 16.0161
887 0.0233884 1214.45 16.0541
888 0.0234197 1215.53 16.0922
889 0.0234511 1216.6 16.1304
890 0.0234824 1217.68 16.1685
891 0.0235138 1218.76 16.2067
892 0.0235451 1219.83 16.245
893 0.0235764 1220.91 16.2833
894 0.0236078 1221.98 16.3216
895 0.0236391 1223.06 16.3599
896 0.0236705 1224.13 16.3983
897 0.0237018 1225.2 16.4367
898 0.0237332 1226.27 16.4751
899 0.0237645 1227.33 16.5136
900 0.0237959 1228.4 16.5521
901 0.0238272 1229.47 16.5906
902 0.0238586 1230.53 16.6292
903 0.0238899 1231.6 16.6678
904 0.0239212 1232.66 16.7064
905 0.0239526 1233.72 16.7451
906 0.0239839 1234.78 16.7838
907 0.0240153 1235.84 16.8226
908 0.0240466 1236.9 16.8613
909 0.024078 1237.96 16.9001
910 0.0241093 1239.02 16.939
911 0.0241407 1240.07 16.9778
912 0.024172 1241.13 17.0167
913 0.0242034 1242.18 17.0557
914 0.0242347 1243.23 17.0947
915 0.024266 1244.28 17.1337
916 0.0242974 1245.33 17.1727
917 0.0243287 1246.38 17.2118
918 0.0243601 1247.43 17.2509
919 0.0243914 1248.48 17.29
920 0.0244228 1249.53 17.3292
921 0.0244541 1250.57 17.3684
922 0.0244855 1251.61 17.4076
923 0.0245168 1252.66 17.4469
924 0.0245482 1253.7 17.4862
925 0.0245795 1254.74 17.5255
926 0.0246108 1255.78 17.5649
927 0.0246422 1256.82 17.6042
928 0.0246735 1257.86 17.6437
929 0.0247049 1258.9 17.6831
930 0.0247362 1259.93 17.7226
931 0.0247676 1260.97 17.7622
932 0.0247989 1262 17.8017
933 0.0248303 1263.03 17.8413
934 0.0248616 1264.07 17.8809
935 0.024893 1265.1 17.9206
936 0.0249243 1266.13 17.9603
937 0.0249556 1267.16 18
938 0.024987 1268.18 18.0397
939 0.0250183 1269.21 18.0795
940 0.0250497 1270.24 18.1193
941 0.025081 1271.26 18.1592
942 0.0251124 1272.29 18.1991
943 0.0251437 1273.31 18.239
944 0.0251751 1274.33 18.2789
945 0.0252064 1275.35 18.3189
946 0.0252378 1276.37 18.3589
947 0.0252691 1277.39 18.399
948 0.0253005 1278.41 18.439
949 0.0253318 1279.43 18.4791
950 0.0253631 1280.44 18.5193
951 0.0253945 1281.46 18.5594
952 0.0254258 1282.47 18.5996
953 0.0254572 1283.48 18.6399
954 0.0254885 1284.5 18.6801
955 0.0255199 1285.51 18.7204
956 0.0255512 1286.52 18.7608
957 0.0255826 1287.53 18.8011
958 0.0256139 1288.54 18.8415
959 0.0256453 1289.54 18.8819
960 0.0256766 1290.55 18.9224
961 0.0257079 1291.55 18.9629
962 0.0257393 1292.56 19.0034
963 0.0257706 1293.56 19.0439
964 0.025802 1294.56 19.0845
965 0.0258333 1295.56 19.1251
966 0.0258647 1296.56 19.1658
967 0.025896 1297.56 19.2064
968 0.0259305 1298.66 19.2512
969 0.025965 1299.76 19.296
970 0.0259995 1300.85 19.3409
971 0.0260339 1301.95 19.3858
972 0.0260684 1303.04 19.4307
973 0.0261029 1304.14 19.4757
974 0.0261374 1305.23 19.5207
975 0.0261719 1306.32 19.5657
976 0.0262063 1307.4 19.6108
977 0.0262408 1308.49 19.6559
978 0.0262753 1309.58 19.7011
979 0.0263098 1310.66 19.7463
980 0.0263443 1311.75 19.7915
981 0.0263787 1312.83 19.8367
982 0.0264132 1313.91 19.8821
983 0.0264477 1314.99 19.9274
984 0.0264822 1316.07 19.9728
985 0.0265167 1317.15 20.0182
986 0.0265511 1318.23 20.0636
987 0.0265856 1319.3 20.1091
988 0.0266201 1320.38 20.1547
989 0.0266546 1321.45 20.2002
990 0.0266891 1322.53 20.2458
991 0.0267235 1323.6 20.2915
992 0.026758 1324.67 20.3371
993 0.0267925 1325.74 20.3828
994 0.026827 1326.8 20.4286
995 0.0268615 1327.87 20.4744
996 0.0268959 1328.94 20.5202
997 0.0269304 1330 20.5661
998 0.0269649 1331.06 20.612
999 0.0269994 1332.13 20.6579
1000 0.0270339 1333.19 20.7039
1001 0.0270683 1334.25 20.7499
1002 0.0271028 1335.31 20.7959
1003 0.0271373 1336.36 20.842
1004 0.0271718 1337.42 20.8881
1005 0.0272063 1338.48 20.9342
1006 0.0272407 1339.53 20.9804
1007 0.0272752 1340.58 21.0267
1008 0.0273097 1341.64 21.0729
1009 0.0273442 1342.69 21.1192
1010 0.0273787 1343.74 21.1655
1011 0.0274131 1344.79 21.2119
1012 0.0274476 1345.83 21.2583
1013 0.0274821 1346.88 21.3048
1014 0.0275166 1347.93 21.3512
1015 0.0275511 1348.97 21.3977
1016 0.0275855 1350.01 21.4443
1017 0.02762 1351.06 21.4909
1018 0.0276545 1352.1 21.5375
1019 0.027689 1353.14 21.5842
1020 0.0277235 1354.18 21.6308
1021 0.0277579 1355.21 21.6776
1022 0.0277924 1356.25 21.7243
1023 0.0278269 1357.28 21.7711
1024 0.0278614 1358.32 21.818
1025 0.0278959 1359.35 21.8648
1026 0.0279303 1360.38 21.9118
1027 0.0279648 1361.42 21.9587
1028 0.0279993 1362.45 22.0057
1029 0.0280338 1363.47 22.0527
1030 0.0280683 1364.5 22.0997
1031 0.0281027 1365.53 22.1468
1032 0.0281372 1366.55 22.1939
1033 0.0281717 1367.58 22.2411
1034 0.0282062 1368.6 22.2883
1035 0.0282407 1369.63 22.3355
1036 0.0282751 1370.65 22.3828
1037 0.0283096 1371.67 22.4301
1038 0.0283441 1372.69 22.4774
1039 0.0283786 1373.7 22.5248
1040 0.0284131 1374.72 22.5722
1041 0.0284475 1375.74 22.6196
1042 0.028482 1376.75 22.6671
1043 0.0285165 1377.77 22.7146
1044 0.028551 1378.78 22.7621
1045 0.0285855 1379.79 22.8097
1046 0.02862 1380.8 22.8573
1047 0.0286544 1381.81 22.9049
1048 0.0286889 1382.82 22.9526
1049 0.0287234 1383.82 23.0003
1050 0.0287579 1384.83 23.0481
1051 0.0287924 1385.84 23.0959
1052 0.0288268 1386.84 23.1437
1053 0.0288613 1387.84 23.1915
1054 0.0288958 1388.85 23.2394
1055 0.0289303 1389.85 23.2873
1056 0.0289648 1390.85 23.3353
1057 0.0290027 1391.94 23.3881
1058 0.0290406 1393.04 23.4409
1059 0.0290785 1394.15 23.4938
1060 0.0291165 1395.31 23.5467
1061 0.0291544 1396.51 23.5997
1062 0.0291923 1397.75 23.6527
1063 0.0292302 1399.05 23.7058
1064 0.0292682 1400.39 23.7589
1065 0.0293061 1401.77 23.8121
1066 0.029344 1403.2 23.8653
1067 0.029382 1404.67 23.9186
1068 0.0294199 1406.19 23.9719
1069 0.0294578 1407.75 24.0253
1070 0.0294957 1409.35 24.0787
1071 0.0295337 1410.98 24.1323
1072 0.0295716 1412.66 24.1858
1073 0.0296095 1414.37 24.2395
1074 0.0296475 1416.12 24.2932
1075 0.0296854 1417.9 24.347
1076 0.0297233 1419.72 24.4008
1077 0.0297612 1421.56 24.4547
1078 0.0297992 1423.43 24.5087
1079 0.0298371 1425.32 24.5628
1080 0.029875 1427.24 24.6169
1081 0.029913 1429.17 24.6711
1082 0.0299509 1431.13 24.7254
1083 0.0299888 1433.1 24.7798
1084 0.0300267 1435.09 24.8342
1085 0.0300647 1437.09 24.8887
1086 0.030095 1438.7 24.9323
1087 0.0301254 1440.31 24.976
1088 0.0301557 1441.93 25.0198
1089 0.030186 1443.56 25.0636
1090 0.0302164 1445.19 25.1074
1091 0.0302467 1446.81 25.1513
1092 0.0302771 1448.45 25.1953
1093 0.0303074 1450.08 25.2393
1094 0.0303378 1451.71 25.2833
1095 0.0303681 1453.34 25.3274
1096 0.0303984 1454.96 25.3716
1097 0.0304288 1456.59 25.4158
1098 0.0304591 1458.21 25.46
1099 0.0304895 1459.83 25.5043
1100 0.0305198 1461.45 25.5487
1101 0.0305501 1463.06 25.5931
1102 0.0305805 1464.66 25.6375
1103 0.0306108 1466.26 25.682
1104 0.0306412 1467.86 25.7265
1105 0.0306715 1469.44 25.7711
1106 0.0307019 1471.02 25.8158
1107 0.0307322 1472.6 25.8604
1108 0.0307625 1474.16 25.9052
1109 0.0307929 1475.72 25.9499
1110 0.0308232 1477.27 25.9948
1111 0.0308536 1478.81 26.0396
1112 0.0308839 1480.34 26.0846
1113 0.0309143 1481.86 26.1295
1114 0.0309446 1483.38 26.1745
1115 0.0309749 1484.88 26.2196
1116 0.0310053 1486.38 26.2647
1117 0.0310356 1487.87 26.3098
1118 0.031066 1489.34 26.355
1119 0.0310963 1490.81 26.4003
1120 0.0311267 1492.27 26.4455
1121 0.031157 1493.72 26.4909
1122 0.0311873 1495.16 26.5362
1123 0.0312177 1496.59 26.5816
1124 0.031248 1498 26.6271
1125 0.0312784 1499.41 26.6726
1126 0.0313087 1500.81 26.7181
1127 0.0313391 1502.2 26.7637
1128 0.0313694 1503.58 26.8093
1129 0.0313997 1504.95 26.855
1130 0.0314301 1506.31 26.9007
1131 0.0314604 1507.66 26.9464
1132 0.0314908 1509 26.9922
1133 0.0315211 1510.33 27.0381
1134 0.0315515 1511.65 27.0839
1135 0.0315818 1512.96 27.1298
1136 0.0316121 1514.26 27.1758
1137 0.0316425 1515.55 27.2218
1138 0.0316728 1516.84 27.2678
1139 0.0317032 1518.11 27.3139
1140 0.0317335 1519.37 27.36
1141 0.0317639 1520.63 27.4061
1142 0.0317942 1521.87 27.4523
1143 0.0318245 1523.11 27.4985
1144 0.0318549 1524.34 27.5447
1145 0.0318852 1525.56 27.591
1146 0.0319156 1526.77 27.6374
1147 0.0319459 1527.97 27.6837
1148 0.0319762 1529.16 27.7301
1149 0.0320066 1530.35 27.7765
1150 0.0320369 1531.52 27.823
1151 0.0320673 1532.69 27.8695
1152 0.0320976 1533.85 27.9161
1153 0.032128 1535 27.9626
1154 0.0321583 1536.14 28.0093
1155 0.0321886 1537.28 28.0559
1156 0.032219 1538.4 28.1026
1157 0.0322493 1539.52 28.1493
1158 0.0322797 1540.63 28.196
1159 0.03231 1541.74 28.2428
1160 0.0323404 1542.83 28.2896
1161 0.0323707 1543.92 28.3365
1162 0.032401 1545.01 28.3834
1163 0.0324314 1546.08 28.4303
1164 0.0324617 1547.15 28.4772
1165 0.0324921 1548.21 28.5242
1166 0.0325224 1549.26 28.5712
1167 0.0325528 1550.31 28.6182
1168 0.0325831 1551.35 28.6653
1169 0.0326134 1552.38 28.7124
1170 0.0326438 1553.4 28.7595
1171 0.0326741 1554.42 28.8067
1172 0.0327045 1555.44 28.8539
1173 0.0327348 1556.44 28.9011
1174 0.0327652 1557.44 28.9484
1175 0.0327955 1558.44 28.9957
1176 0.0328289 1559.52 29.0477
1177 0.0328623 1560.6 29.0998
1178 0.0328956 1561.68 29.1519
1179 0.032929 1562.74 29.2041
1180 0.0329624 1563.8 29.2563
1181 0.0329958 1564.85 29.3085
1182 0.0330291 1565.89 29.3608
1183 0.0330625 1566.93 29.4131
1184 0.0330959 1567.96 29.4654
1185 0.0331293 1568.99 29.5178
1186 0.0331626 1570 29.5702
1187 0.033196 1571.01 29.6226
1188 0.0332294 1572.02 29.6751
1189 0.0332628 1573.02 29.7276
1190 0.0332995 1574.11 29.7854
1191 0.0333362 1575.19 29.8432
1192 0.0333729 1576.27 29.9011
1193 0.0334096 1577.34 29.959
1194 0.0334463 1578.41 30.017
1195 0.0334831 1579.46 30.0749
1196 0.0335198 1580.51 30.133
1197 0.0335565 1581.55 30.191
1198 0.0335932 1582.59 30.2491
1199 0.0336299 1583.62 30.3073
1200 0.0336666 1584.64 30.3655
1201 0.0337033 1585.66 30.4237
1202 0.0337401 1586.67 30.4819
1203 0.0337768 1587.68 30.5402
1204 0.0338135 1588.68 30.5986
1205 0.0338539 1589.77 30.6628
1206 0.0338943 1590.85 30.727
1207 0.0339346 1591.93 30.7913
1208 0.033975 1593 30.8556
1209 0.0340154 1594.07 30.92
1210 0.0340558 1595.13 30.9844
1211 0.0340962 1596.18 31.0489
1212 0.0341366 1597.22 31.1134
1213 0.034177 1598.26 31.1779
1214 0.0342173 1599.3 31.2425
1215 0.0342577 1600.32 31.3072
1216 0.0342981 1601.34 31.3718
1217 0.0343385 1602.36 31.4366
1218 0.0343789 1603.37 31.5013
1219 0.0344193 1604.37 31.5661
1220 0.0344597 1605.37 31.6309
1221 0.0345041 1606.46 31.7023
1222 0.0345485 1607.54 31.7737
1223 0.0345929 1608.62 31.8452
1224 0.0346374 1609.69 31.9167
1225 0.0346818 1610.76 31.9882
1226 0.0347262 1611.82 32.0598
1227 0.0347706 1612.87 32.1315
1228 0.0348151 1613.92 32.2032
1229 0.0348595 1614.96 32.2749
1230 0.0349039 1616 32.3467
1231 0.0349483 1617.03 32.4186
1232 0.0349928 1618.05 32.4904
1233 0.0350372 1619.07 32.5624
1234 0.0350816 1620.08 32.6343
1235 0.035126 1621.09 32.7064
1236 0.0351705 1622.09 32.7784
1237 0.0352149 1623.09 32.8505
1238 0.0352637 1624.18 32.9299
1239 0.0353126 1625.26 33.0093
1240 0.0353615 1626.34 33.0888
1241 0.0354103 1627.42 33.1683
1242 0.0354592 1628.48 33.2479
1243 0.0355081 1629.55 33.3275
1244 0.035557 1630.6 33.4072
1245 0.0356058 1631.65 33.4869
1246 0.0356547 1632.7 33.5667
1247 0.0357036 1633.74 33.6466
1248 0.0357524 1634.77 33.7265
1249 0.0358013 1635.8 33.8064
1250 0.0358502 1636.83 33.8864
1251 0.035899 1637.85 33.9664
1252 0.0359479 1638.86 34.0465
1253 0.0359968 1639.87 34.1266
1254 0.0360456 1640.88 34.2068
1255 0.0360945 1641.88 34.2871
1256 0.0361434 1642.87 34.3673
1257 0.0361971 1643.96 34.4557
1258 0.0362509 1645.05 34.5441
1259 0.0363046 1646.13 34.6326
1260 0.0363584 1647.2 34.7212
1261 0.0364121 1648.27 34.8098
1262 0.0364659 1649.34 34.8984
1263 0.0365196 1650.39 34.9871
1264 0.0365734 1651.45 35.0759
1265 0.0366271 1652.5 35.1647
1266 0.0366809 1653.54 35.2536
1267 0.0367346 1654.39 35.3425
1268 0.0367938 1655.32 35.4404
1269 0.0368588 1656.34 35.5482
1270 0.0369239 1657.35 35.656
1271 0.0369889 1658.37 35.7638
1272 0.0370539 1659.38 35.8717
1273 0.037119 1660.38 35.9797
1274 0.037184 1661.39 36.0878
1275 0.0372491 1662.39 36.1959
1276 0.0373141 1663.39 36.3041
1277 0.0373792 1664.39 36.4124
1278 0.0374507 1665.49 36.5315
1279 0.0375222 1666.58 36.6508
1280 0.0375938 1667.66 36.7701
1281 0.0376653 1668.75 36.8895
1282 0.0377369 1669.83 37.0089
1283 0.0378084 1670.91 37.1285
1284 0.03788 1671.99 37.2481
1285 0.0379515 1673.06 37.3678
1286 0.0380231 1674.13 37.4876
1287 0.0380946 1675.19 37.6074
1288 0.0381662 1676.26 37.7274
1289 0.0382377 1677.32 37.8474
1290 0.0383093 1678.37 37.9675
1291 0.0383808 1679.43 38.0876
1292 0.0384523 1680.48 38.2078
1293 0.0385239 1681.53 38.3282
1294 0.0385954 1682.57 38.4485
1295 0.038667 1683.61 38.569
1296 0.0387385 1684.65 38.6895
1297 0.0388101 1685.69 38.8101
1298 0.0388816 1686.72 38.9308
1299 0.0389532 1687.75 39.0516
1300 0.0390247 1688.77 39.1724
1301 0.0390963 1689.8 39.2933
1302 0.0391678 1690.82 39.4143
1303 0.0392394 1691.84 39.5353
1304 0.0393109 1692.85 39.6564
1305 0.0393824 1693.86 39.7776
1306 0.039454 1694.87 39.8989
1307 0.0395255 1695.88 40.0202
1308 0.0395971 1696.88 40.1416
1309 0.0396686 1697.88 40.2631
1310 0.0397473 1698.98 40.3968
1311 0.039826 1700.07 40.5306
1312 0.0399047 1701.16 40.6645
1313 0.0399834 1702.24 40.7984
1314 0.0400621 1703.33 40.9325
1315 0.0401408 1704.41 41.0666
1316 0.0402195 1705.48 41.2009
1317 0.0402982 1706.55 41.3352
1318 0.0403769 1707.62 41.4695
1319 0.0404556 1708.69 41.604
1320 0.0405343 1709.75 41.7386
1321 0.040613 1710.81 41.8732
1322 0.0406917 1711.86 42.0079
1323 0.0407704 1712.91 42.1428
1324 0.0408491 1713.96 42.2776
1325 0.0409278 1715.01 42.4126
1326 0.0410065 1716.05 42.5477
1327 0.0410852 1717.08 42.6828
1328 0.0411639 1718.12 42.818
1329 0.0412426 1719.15 42.9533
1330 0.0413213 1720.18 43.0887
1331 0.0414 1721.2 43.2242
1332 0.0414787 1722.22 43.3597
1333 0.0415574 1723.24 43.4953
1334 0.0416361 1724.26 43.631
1335 0.0417148 1725.27 43.7668
1336 0.0417935 1726.27 43.9027
1337 0.0418722 1727.28 44.0386
1338 0.0419509 1728.28 44.1746
1339 0.0420296 1729.28 44.3107
1340 0.0421162 1730.37 44.4605
1341 0.0422028 1731.46 44.6104
1342 0.0422894 1732.55 44.7604
1343 0.0423759 1733.63 44.9105
1344 0.0424625 1734.71 45.0607
1345 0.0425491 1735.78 45.2109
1346 0.0426356 1736.86 45.3613
1347 0.0427222 1737.92 45.5117
1348 0.0428088 1738.99 45.6623
1349 0.0428954 1740.04 45.8129
1350 0.0429819 1741.1 45.9636
1351 0.0430685 1742.15 46.1145
1352 0.0431551 1743.2 46.2654
1353 0.0432416 1744.24 46.4164
1354 0.0433282 1745.28 46.5675
1355 0.0434148 1746.32 46.7186
1356 0.0435014 1747.35 46.8699
1357 0.0435879 1748.38 47.0213
1358 0.0436745 1749.41 47.1727
1359 0.0437611 1750.43 47.3243
1360 0.0438476 1751.45 47.4759
1361 0.0439342 1752.46 47.6276
1362 0.0440208 1753.47 47.7794
1363 0.0441073 1754.48 47.9313
1364 0.0441939 1755.48 48.0833
1365 0.0442805 1756.48 48.2353
1366 0.0443757 1757.58 48.4027
1367 0.0444709 1758.67 48.5702
1368 0.0445662 1759.75 48.7377
1369 0.0446614 1760.84 48.9054
1370 0.0447566 1761.91 49.0732
1371 0.0448519 1762.99 49.2411
1372 0.0449471 1764.06 49.4091
1373 0.0450423 1765.12 49.5772
1374 0.0451375 1766.18 49.7454
1375 0.0452328 1767.24 49.9136
1376 0.045328 1768.29 50.082
1377 0.0454232 1769.34 50.2505
1378 0.0455185 1770.38 50.4191
1379 0.0456137 1771.42 50.5878
1380 0.0457089 1772.46 50.7566
1381 0.0458041 1773.49 50.9255
1382 0.0458994 1774.52 51.0945
1383 0.0459946 1775.54 51.2635
1384 0.0460898 1776.56 51.4327
1385 0.046185 1777.57 51.602
1386 0.0462803 1778.59 51.7714
1387 0.0463755 1779.59 51.9408
1388 0.0464707 1780.59 52.1104
1389 0.046566 1781.59 52.2801
1390 0.0466707 1782.69 52.4668
1391 0.0467755 1783.78 52.6536
1392 0.0468802 1784.86 52.8406
1393 0.046985 1785.94 53.0277
1394 0.0470897 1787.01 53.2149
1395 0.0471945 1788.08 53.4022
1396 0.0472992 1789.15 53.5896
1397 0.047404 1790.21 53.7771
1398 0.0475087 1791.26 53.9648
1399 0.0476135 1792.31 54.1525
1400 0.0477182 1793.36 54.3404
1401 0.047823 1794.4 54.5283
1402 0.0479277 1795.44 54.7164
1403 0.0480325 1796.47 54.9046
1404 0.0481372 1797.5 55.0929
1405 0.048242 1798.52 55.2813
1406 0.0483467 1799.54 55.4698
1407 0.0484515 1800.55 55.6584
1408 0.0485562 1801.56 55.8471
1409 0.048661 1802.56 56.0359
1410 0.0487657 1803.56 56.2248
1411 0.048881 1804.66 56.4328
1412 0.0489962 1805.75 56.6408
1413 0.0491114 1806.83 56.849
1414 0.0492266 1807.91 57.0574
1415 0.0493419 1808.98 57.2658
1416 0.0494571 1810.05 57.4744
1417 0.0495723 1811.11 57.683
1418 0.0496875 1812.17 57.8919
1419 0.0498028 1813.22 58.1008
1420 0.049918 1814.27 58.3098
1421 0.0500332 1815.31 58.519
1422 0.0501484 1816.35 58.7283
1423 0.0502637 1817.38 58.9377
1424 0.0503789 1818.4 59.1472
1425 0.0504941 1819.42 59.3569
1426 0.0506093 1820.44 59.5666
1427 0.0507246 1821.45 59.7765
1428 0.0508398 1822.45 59.9865
1429 0.050955 1823.45 60.1966
1430 0.0510702 1824.45 60.4068
1431 0.051197 1825.54 60.6382
1432 0.0513237 1826.62 60.8697
1433 0.0514505 1827.7 61.1014
1434 0.0515772 1828.77 61.3332
1435 0.051704 1829.84 61.5651
1436 0.0518307 1830.9 61.7972
1437 0.0519575 1831.95 62.0294
1438 0.0520842 1833 62.2617
1439 0.052211 1834.04 62.4942
1440 0.0523377 1835.07 62.7268
1441 0.0524645 1836.1 62.9595
1442 0.0525912 1837.13 63.1923
1443 0.052718 1838.15 63.4253
1444 0.0528447 1839.16 63.6584
1445 0.0529715 1840.17 63.8917
1446 0.0530982 1841.17 64.125
1447 0.053225 1842.17 64.3585
1448 0.0533644 1843.26 64.6155
1449 0.0535038 1844.34 64.8727
1450 0.0536432 1845.41 65.13
1451 0.0537827 1846.48 65.3874
1452 0.0539221 1847.55 65.645
1453 0.0540615 1848.6 65.9027
1454 0.0542009 1849.65 66.1606
1455 0.0543403 1850.7 66.4186
1456 0.0544798 1851.73 66.6768
1457 0.0546192 1852.76 66.9351
1458 0.0547586 1853.79 67.1936
1459 0.054898 1854.8 67.4522
1460 0.0550375 1855.82 67.7109
1461 0.0551769 1856.82 67.9698
1462 0.0553163 1857.82 68.2289
1463 0.0554697 1858.91 68.5139
1464 0.055623 1859.99 68.7992
1465 0.0557764 1861.07 69.0846
1466 0.0559298 1862.14 69.3702
1467 0.0560831 1863.2 69.656
1468 0.0562365 1864.26 69.9419
1469 0.0563899 1865.3 70.228
1470 0.0565432 1866.34 70.5142
1471 0.0566966 1867.38 70.8006
1472 0.05685 1868.4 71.0871
1473 0.0570033 1869.42 71.3738
1474 0.0571567 1870.43 71.6607
1475 0.0573101 1871.44 71.9477
1476 0.0574634 1872.43 72.2349
1477 0.0576321 1873.52 72.5509
1478 0.0578008 1874.6 72.8672
1479 0.0579695 1875.68 73.1836
1480 0.0581382 1876.74 73.5002
1481 0.0583069 1877.8 73.817
1482 0.0584756 1878.85 74.134
1483 0.0586443 1879.89 74.4511
1484 0.058813 1880.92 74.7684
1485 0.0589817 1881.94 75.0859
1486 0.0591504 1882.96 75.4036
1487 0.0593191 1883.97 75.7214
1488 0.0594879 1884.97 76.0394
1489 0.0596566 1885.96 76.3576
1490 0.0598421 1887.04 76.7078
1491 0.0600277 1888.12 77.0581
1492 0.0602133 1889.18 77.4087
1493 0.0603988 1890.24 77.7595
1494 0.0605844 1891.29 78.1105
1495 0.06077 1892.32 78.4616
1496 0.0609556 1893.35 78.813
1497 0.0611411 1894.37 79.1645
1498 0.0613267 1895.38 79.5163
1499 0.0615123 1896.39 79.8682
1500 0.0616978 1897.38 80.2203
1501 0.061902 1898.46 80.6078
1502 0.0621061 1899.54 80.9956
1503 0.0623102 1900.6 81.3835
1504 0.0625144 1901.65 81.7717
1505 0.0627185 1902.7 82.1601
1506 0.0629226 1903.73 82.5487
1507 0.0631268 1904.75 82.9375
1508 0.0633309 1905.77 83.3266
1509 0.063535 1906.77 83.7158
1510 0.0637391 1907.76 84.1052
1511 0.0639637 1908.85 84.5338
1512 0.0641882 1909.92 84.9627
1513 0.0644128 1910.98 85.3918
1514 0.0646373 1912.03 85.8211
1515 0.0648619 1913.06 86.2507
1516 0.0650864 1914.09 86.6805
1517 0.0653109 1915.11 87.1105
1518 0.0655355 1916.11 87.5407
1519 0.06576 1917.1 87.9712
1520 0.066007 1918.18 88.445
1521 0.066254 1919.25 88.919
1522 0.066501 1920.31 89.3934
1523 0.066748 1921.35 89.8679
1524 0.066995 1922.38 90.3427
1525 0.067242 1923.4 90.8178
1526 0.067489 1924.41 91.2931
1527 0.067736 1925.4 91.7687
1528 0.0680077 1926.48 92.2921
1529 0.0682794 1927.55 92.8158
1530 0.0685511 1928.6 93.3398
1531 0.0688228 1929.64 93.8641
1532 0.0690945 1930.67 94.3887
1533 0.0693662 1931.68 94.9135
1534 0.0696379 1932.67 95.4386
1535 0.0699367 1933.76 96.0165
1536 0.0702356 1934.82 96.5948
1537 0.0705345 1935.88 97.1733
1538 0.0708333 1936.91 97.7522
1539 0.0711322 1937.93 98.3314
1540 0.0714311 1938.94 98.9109
1541 0.0717299 1939.93 99.4907
1542 0.0720587 1941 100.129
1543 0.0723874 1942.06 100.767
1544 0.0727162 1943.1 101.406
1545 0.0730449 1944.12 102.045
1546 0.0733737 1945.12 102.685
1547 0.0737024 1946.11 103.324
1548 0.0740641 1947.18 104.029
1549 0.0744257 1948.23 104.733
1550 0.0747873 1949.26 105.438
1551 0.075149 1950.27 106.143
1552 0.0755106 1951.26 106.849
1553 0.0759084 1952.33 107.626
1554 0.0763062 1953.38 108.403
1555 0.076704 1954.41 109.18
1556 0.0771017 1955.42 109.958
1557 0.0774995 1956.41 110.736
1558 0.0779371 1957.47 111.593
1559 0.0783747 1958.51 112.45
1560 0.0788122 1959.53 113.307
1561 0.0792498 1960.52 114.165
1562 0.0797311 1961.59 115.109
1563 0.0802125 1962.63 116.054
1564 0.0806938 1963.65 116.999
1565 0.0811751 1964.63 117.945
1566 0.0817046 1965.69 118.985
1567 0.082234 1966.72 120.027
1568 0.0827635 1967.73 121.068
1569 0.083293 1968.7 122.111
1570 0.0838754 1969.74 123.258
1571 0.0844578 1970.75 124.406
1572 0.0850402 1971.73 125.554
1573 0.0856808 1972.77 126.818
1574 0.0863215 1973.77 128.082
1575 0.0869621 1974.74 129.348
1576 0.0876668 1975.77 130.74
1577 0.0883715 1976.76 132.133
1578 0.0891467 1977.81 133.666
1579 0.0899219 1978.81 135.2
1580 0.0906971 1979.77 136.735
1581 0.0915498 1980.78 138.424
1582 0.0924025 1981.74 140.114
1583 0.0933404 1982.74 141.973
1584 0.0942784 1983.7 143.834
1585 0.0953102 1984.69 145.882
1586 0.0964451 1985.72 148.135
1587 0.0975801 1986.68 150.39
1588 0.0988285 1987.67 152.872
1589 0.100202 1988.67 155.603
1590 0.101575 1989.6 158.335
1591 0.103086 1990.54 161.342
1592 0.104747 1991.48 164.651
1593 0.106575 1992.41 168.293
1594 0.108586 1993.32 172.301
1595 0.110797 1994.2 176.711
1596 0.11323 1995.05 181.565
1597 0.115906 1995.84 186.906
1598 0.11885 1996.57 192.783
1599 0.122088 1997.23 199.251
1600 0.12565 1997.81 206.367
1601 0.129568 1998.32 214.196
1602 0.133878 1998.74 222.811
1603 0.138619 1999.09 232.288
1604 0.143834 1999.36 242.715
1605 0.149571 1999.57 254.186
1606 0.155881 1999.72 266.804
1607 0.162822 1999.83 280.686
1608 0.170458 1999.9 295.955
1609 0.178856 1999.94 312.753
1610 0.188095 1999.97 331.23
1611 0.198258 1999.99 351.555


# Total time: 0.198258 s
# Total distance: 351.555 m