# Constants and Parameters

# Final flow velocity (u_f): 2000 (m/s) - The final velocity of the flow
# Initial particle velocity (u_0): 0 (m/s) - The initial velocity of the particle
# Particle radius (r_is): 0.0001 (m) - The radius of the particle
# Nozzle radius (r_n): 0.05 (m) - The radius of the nozzle
# Particle density (q): 7874 (kg/m^3) - The density of the particle
# Gas density (q_g): 1.2754 (kg/m^3) - The density of the gas
# Gas constant (R): 8.31446 (J/(kg*K)) - The specific gas constant
# Gamma: 1.4# Molar mass of air (M): 0.029 (kg/mol) - The molar mass of air
# Gas temperature (T): 300 (K) - The temperature of the gas
# Reference temperature (T_0): 291.15 (K) - The reference temperature for gas
# Reference viscosity (eta_0): 1.827e-05 (Pa*s) - The reference viscosity of the gas
# Specific heat capacity of the gas (Cp): 460 (J/(kg*K)) - The specific heat capacity of the gas
# Speed of sound (Sound speed): 347.011 (m/s) - The speed of sound in the gas
# Dynamic viscosity (Viscosity): 1.91093e-05 (Pa*s) - The dynamic viscosity of the gas






# iter real_time (s) velocity (m/s) distance (m)
0 0 0 0
1 4.02576e-08 0.000298131 1.2002e-11
2 8.45409e-08 0.000626076 3.97267e-11
3 1.33253e-07 0.000986814 8.77961e-11
4 1.86835e-07 0.00138363 1.61935e-10
5 2.45776e-07 0.00182012 2.69215e-10
6 3.10612e-07 0.00230026 4.18353e-10
7 3.8193e-07 0.00282842 6.20072e-10
8 4.60381e-07 0.00340939 8.87541e-10
9 5.46677e-07 0.00404846 1.23691e-09
10 6.41602e-07 0.00475144 1.68794e-09
11 7.4602e-07 0.00552471 2.26482e-09
12 8.60879e-07 0.00637531 2.99708e-09
13 9.87225e-07 0.00731098 3.92079e-09
14 1.1262e-06 0.0083402 5.07991e-09
15 1.27908e-06 0.00947235 6.52802e-09
16 1.44725e-06 0.0107177 8.33038e-09
17 1.63223e-06 0.0120876 1.05664e-08
18 1.83571e-06 0.0135945 1.33326e-08
19 2.05954e-06 0.0152521 1.67464e-08
20 2.30575e-06 0.0170754 2.09506e-08
21 2.57658e-06 0.0190811 2.61184e-08
22 2.8745e-06 0.0212873 3.24602e-08
23 3.20221e-06 0.0237141 4.02315e-08
24 3.56269e-06 0.0263837 4.97422e-08
25 3.95921e-06 0.0293201 6.13684e-08
26 4.39539e-06 0.0325502 7.55662e-08
27 4.87519e-06 0.0361034 9.28884e-08
28 5.40296e-06 0.0400118 1.14006e-07
29 5.98352e-06 0.0443111 1.39731e-07
30 6.62213e-06 0.0490402 1.71048e-07
31 7.3246e-06 0.0542423 2.09152e-07
32 8.09732e-06 0.0599646 2.55488e-07
33 8.9473e-06 0.0662591 3.11807e-07
34 9.88229e-06 0.073183 3.80232e-07
35 1.09108e-05 0.0807993 4.63333e-07
36 1.20421e-05 0.0891771 5.64223e-07
37 1.32866e-05 0.0983928 6.86669e-07
38 1.46555e-05 0.10853 8.35238e-07
39 1.61613e-05 0.119681 1.01545e-06
40 1.78177e-05 0.131946 1.23401e-06
41 1.96397e-05 0.145439 1.499e-06
42 2.1644e-05 0.16028 1.82024e-06
43 2.38486e-05 0.176606 2.20959e-06
44 2.62737e-05 0.194563 2.68143e-06
45 2.89414e-05 0.214317 3.25315e-06
46 3.18757e-05 0.236045 3.9458e-06
47 3.51036e-05 0.259947 4.78487e-06
48 3.86542e-05 0.286238 5.80119e-06
49 4.25599e-05 0.315157 7.03209e-06
50 4.68561e-05 0.346968 8.52275e-06
51 5.1582e-05 0.38196 1.03278e-05
52 5.67804e-05 0.42045 1.25135e-05
53 6.24987e-05 0.462789 1.51599e-05
54 6.87889e-05 0.50936 1.83638e-05
55 7.5708e-05 0.560587 2.22426e-05
56 8.33191e-05 0.616935 2.69382e-05
57 9.16912e-05 0.678917 3.26222e-05
58 0.000100901 0.747094 3.95024e-05
59 0.000111031 0.822087 4.78304e-05
60 0.000122174 0.904575 5.79104e-05
61 0.000134432 0.995309 7.01106e-05
62 0.000147915 1.09511 8.48765e-05
63 0.000162747 1.20489 0.000102747
64 0.000179062 1.32564 0.000124375
65 0.000197009 1.45845 0.000150549
66 0.00021675 1.60454 0.000182224
67 0.000238465 1.76522 0.000220557
68 0.000262352 1.94196 0.000266944
69 0.000288627 2.13635 0.000323077
70 0.00031753 2.35016 0.000391004
71 0.000349324 2.58533 0.0004732
72 0.000384296 2.84398 0.000572661
73 0.000422766 3.12846 0.000693013
74 0.000465083 3.44134 0.00083864
75 0.000511631 3.78546 0.00101485
76 0.000562835 4.16392 0.00122805
77 0.000619159 4.58015 0.00148603
78 0.000681115 5.0379 0.00179815
79 0.000749266 5.54131 0.0021758
80 0.000824233 6.09492 0.00263272
81 0.000906697 6.70372 0.00318553
82 0.000997407 7.37318 0.00385435
83 0.00109719 8.10935 0.00466351
84 0.00120695 8.91883 0.00564243
85 0.00132768 9.80888 0.00682671
86 0.00146049 10.7875 0.00825938
87 0.00160658 11.8634 0.0099925
88 0.00175267 12.9388 0.0118827
89 0.00189876 14.0136 0.01393
90 0.00204485 15.0879 0.0161341
91 0.00219094 16.1616 0.0184952
92 0.00233703 17.2347 0.021013
93 0.00248312 18.3072 0.0236875
94 0.0026292 19.3792 0.0265186
95 0.00277529 20.4507 0.0295062
96 0.00292138 21.5216 0.0326503
97 0.00306747 22.5919 0.0359507
98 0.00321356 23.6616 0.0394074
99 0.00335965 24.7308 0.0430203
100 0.00350574 25.7995 0.0467893
101 0.00365183 26.8676 0.0507144
102 0.00379792 27.9351 0.0547954
103 0.00394401 29.002 0.0590323
104 0.0040901 30.0685 0.063425
105 0.00423619 31.1343 0.0679734
106 0.00438228 32.1996 0.0726774
107 0.00452837 33.2643 0.077537
108 0.00467445 34.3285 0.082552
109 0.00482054 35.3921 0.0877224
110 0.00496663 36.4552 0.0930481
111 0.00511272 37.5177 0.098529
112 0.00525881 38.5796 0.104165
113 0.0054049 39.641 0.109956
114 0.00555099 40.7018 0.115902
115 0.00569708 41.7621 0.122003
116 0.00584317 42.8218 0.128259
117 0.00598926 43.881 0.13467
118 0.00613535 44.9396 0.141235
119 0.00628144 45.9977 0.147955
120 0.00642753 47.0552 0.154829
121 0.00657362 48.1122 0.161858
122 0.0067197 49.1686 0.169041
123 0.00686579 50.2244 0.176378
124 0.00701188 51.2797 0.183869
125 0.00715797 52.3345 0.191515
126 0.00730406 53.3887 0.199314
127 0.00745015 54.4423 0.207268
128 0.00759624 55.4954 0.215375
129 0.00774233 56.5479 0.223636
130 0.00788842 57.5999 0.232051
131 0.00803451 58.6514 0.240619
132 0.0081806 59.7022 0.249341
133 0.00832669 60.7526 0.258216
134 0.00847278 61.8024 0.267245
135 0.00861887 62.8516 0.276427
136 0.00876495 63.9003 0.285762
137 0.00891104 64.9484 0.29525
138 0.00905713 65.996 0.304892
139 0.00920322 67.0431 0.314686
140 0.00934931 68.0896 0.324633
141 0.0094954 69.1355 0.334733
142 0.00964149 70.1809 0.344986
143 0.00978758 71.2258 0.355391
144 0.00993367 72.2701 0.365949
145 0.0100798 73.3139 0.376659
146 0.0102258 74.3571 0.387522
147 0.0103719 75.3998 0.398537
148 0.010518 76.4419 0.409704
149 0.0106641 77.4835 0.421024
150 0.0108102 78.5245 0.432496
151 0.0109563 79.565 0.444119
152 0.0111024 80.605 0.455895
153 0.0112485 81.6444 0.467822
154 0.0113946 82.6832 0.479901
155 0.0115407 83.7215 0.492132
156 0.0116867 84.7593 0.504514
157 0.0118328 85.7965 0.517048
158 0.0119789 86.8332 0.529734
159 0.012125 87.8694 0.542571
160 0.0122711 88.905 0.555559
161 0.0124172 89.9401 0.568698
162 0.0125633 90.9746 0.581988
163 0.0127094 92.0086 0.59543
164 0.0128555 93.042 0.609022
165 0.0130015 94.0749 0.622766
166 0.0131476 95.1073 0.63666
167 0.0132937 96.1391 0.650705
168 0.0134398 97.1704 0.6649
169 0.0135859 98.2011 0.679246
170 0.013732 99.2313 0.693743
171 0.0138781 100.261 0.70839
172 0.0140242 101.29 0.723187
173 0.0141703 102.319 0.738135
174 0.0143163 103.347 0.753233
175 0.0144624 104.374 0.768481
176 0.0146085 105.401 0.783879
177 0.0147546 106.428 0.799427
178 0.0149007 107.454 0.815125
179 0.0150468 108.479 0.830972
180 0.0151929 109.504 0.84697
181 0.015339 110.528 0.863117
182 0.0154851 111.552 0.879413
183 0.0156312 112.575 0.895859
184 0.0157772 113.598 0.912454
185 0.0159233 114.62 0.929199
186 0.0160694 115.642 0.946093
187 0.0162155 116.663 0.963136
188 0.0163616 117.683 0.980329
189 0.0165077 118.703 0.99767
190 0.0166538 119.723 1.01516
191 0.0167999 120.742 1.0328
192 0.016946 121.76 1.05059
193 0.017092 122.778 1.06852
194 0.0172381 123.795 1.08661
195 0.0173842 124.812 1.10484
196 0.0175303 125.828 1.12322
197 0.0176764 126.844 1.14176
198 0.0178225 127.859 1.16043
199 0.0179686 128.874 1.17926
200 0.0181147 129.888 1.19824
201 0.0182608 130.902 1.21736
202 0.0184068 131.915 1.23663
203 0.0185529 132.928 1.25605
204 0.018699 133.94 1.27562
205 0.0188451 134.951 1.29533
206 0.0189912 135.962 1.3152
207 0.0191373 136.973 1.33521
208 0.0192834 137.983 1.35536
209 0.0194295 138.992 1.37567
210 0.0195756 140.001 1.39612
211 0.0197217 141.009 1.41672
212 0.0198677 142.017 1.43747
213 0.0200138 143.024 1.45836
214 0.0201599 144.031 1.4794
215 0.020306 145.037 1.50059
216 0.0204521 146.043 1.52193
217 0.0205982 147.048 1.54341
218 0.0207443 148.053 1.56504
219 0.0208904 149.057 1.58681
220 0.0210365 150.061 1.60874
221 0.0211825 151.064 1.63081
222 0.0213286 152.066 1.65302
223 0.0214747 153.068 1.67538
224 0.0216208 154.07 1.69789
225 0.0217669 155.071 1.72054
226 0.021913 156.071 1.74334
227 0.0220591 157.071 1.76629
228 0.0222198 158.171 1.79171
229 0.0223805 159.269 1.8173
230 0.0225412 160.368 1.84307
231 0.0227019 161.465 1.86902
232 0.0228626 162.562 1.89514
233 0.0230233 163.658 1.92144
234 0.023184 164.754 1.94792
235 0.0233447 165.849 1.97457
236 0.0235054 166.943 2.0014
237 0.0236661 168.037 2.0284
238 0.0238268 169.13 2.05558
239 0.0239875 170.222 2.08294
240 0.0241482 171.314 2.11046
241 0.0243089 172.405 2.13817
242 0.0244696 173.495 2.16605
243 0.0246303 174.585 2.19411
244 0.0247909 175.675 2.22234
245 0.0249516 176.763 2.25074
246 0.0251123 177.851 2.27932
247 0.025273 178.939 2.30808
248 0.0254337 180.026 2.33701
249 0.0255944 181.112 2.36611
250 0.0257551 182.197 2.39539
251 0.0259158 183.282 2.42484
252 0.0260765 184.367 2.45447
253 0.0262372 185.45 2.48427
254 0.0263979 186.533 2.51425
255 0.0265586 187.616 2.5444
256 0.0267193 188.697 2.57472
257 0.02688 189.779 2.60522
258 0.0270407 190.859 2.63589
259 0.0272014 191.939 2.66673
260 0.0273621 193.018 2.69775
261 0.0275228 194.097 2.72894
262 0.0276835 195.175 2.76031
263 0.0278442 196.253 2.79184
264 0.0280049 197.33 2.82355
265 0.0281656 198.406 2.85544
266 0.0283263 199.481 2.88749
267 0.028487 200.556 2.91972
268 0.0286477 201.631 2.95212
269 0.0288084 202.704 2.9847
270 0.0289691 203.778 3.01745
271 0.0291298 204.85 3.05036
272 0.0292905 205.922 3.08346
273 0.0294512 206.993 3.11672
274 0.0296119 208.064 3.15016
275 0.0297726 209.134 3.18376
276 0.0299333 210.204 3.21754
277 0.030094 211.272 3.25149
278 0.0302547 212.341 3.28562
279 0.0304154 213.408 3.31991
280 0.0305761 214.475 3.35438
281 0.0307368 215.542 3.38901
282 0.0308975 216.607 3.42382
283 0.0310582 217.673 3.4588
284 0.0312189 218.737 3.49395
285 0.0313796 219.801 3.52927
286 0.0315403 220.864 3.56477
287 0.031701 221.927 3.60043
288 0.0318617 222.989 3.63626
289 0.0320224 224.051 3.67227
290 0.0321831 225.112 3.70844
291 0.0323438 226.172 3.74479
292 0.0325045 227.231 3.7813
293 0.0326652 228.291 3.81799
294 0.0328259 229.349 3.85485
295 0.0329866 230.407 3.89187
296 0.0331473 231.464 3.92907
297 0.033308 232.521 3.96643
298 0.0334687 233.577 4.00397
299 0.0336294 234.632 4.04167
300 0.03379 235.687 4.07955
301 0.0339507 236.741 4.11759
302 0.0341114 237.795 4.1558
303 0.0342721 238.848 4.19419
304 0.0344328 239.9 4.23274
305 0.0345935 240.952 4.27146
306 0.0347542 242.003 4.31035
307 0.0349149 243.054 4.34941
308 0.0350756 244.104 4.38863
309 0.0352363 245.153 4.42803
310 0.035397 246.202 4.46759
311 0.0355577 247.25 4.50733
312 0.0357184 248.298 4.54723
313 0.0358791 249.345 4.5873
314 0.0360398 250.391 4.62753
315 0.0362005 251.437 4.66794
316 0.0363612 252.482 4.70851
317 0.0365219 253.526 4.74925
318 0.0366826 254.57 4.79016
319 0.0368433 255.614 4.83124
320 0.037004 256.657 4.87248
321 0.0371647 257.699 4.9139
322 0.0373254 258.74 4.95547
323 0.0374861 259.781 4.99722
324 0.0376468 260.822 5.03913
325 0.0378075 261.861 5.08122
326 0.0379682 262.901 5.12346
327 0.0381289 263.939 5.16588
328 0.0382896 264.977 5.20846
329 0.0384503 266.015 5.25121
330 0.038611 267.052 5.29412
331 0.0387717 268.088 5.3372
332 0.0389324 269.123 5.38045
333 0.0390931 270.158 5.42386
334 0.0392538 271.193 5.46745
335 0.0394145 272.227 5.51119
336 0.0395752 273.26 5.5551
337 0.0397359 274.293 5.59918
338 0.0398966 275.325 5.64343
339 0.0400573 276.356 5.68784
340 0.040218 277.387 5.73241
341 0.0403787 278.417 5.77715
342 0.0405394 279.447 5.82206
343 0.0407001 280.476 5.86713
344 0.0408608 281.505 5.91237
345 0.0410215 282.533 5.95777
346 0.0411822 283.56 6.00334
347 0.0413429 284.587 6.04907
348 0.0415036 285.613 6.09497
349 0.0416643 286.638 6.14103
350 0.041825 287.663 6.18726
351 0.0419857 288.688 6.23365
352 0.0421464 289.712 6.28021
353 0.0423071 290.735 6.32693
354 0.0424678 291.757 6.37381
355 0.0426285 292.779 6.42086
356 0.0427891 293.801 6.46807
357 0.0429498 294.822 6.51545
358 0.0431105 295.842 6.56299
359 0.0432712 296.862 6.6107
360 0.0434319 297.881 6.65857
361 0.0435926 298.899 6.7066
362 0.0437533 299.917 6.7548
363 0.043914 300.935 6.80316
364 0.0440747 301.952 6.85168
365 0.0442354 302.968 6.90036
366 0.0443961 303.983 6.94921
367 0.0445568 304.998 6.99823
368 0.0447175 306.013 7.0474
369 0.0448782 307.027 7.09674
370 0.0450389 308.04 7.14624
371 0.0451996 309.053 7.19591
372 0.0453603 310.065 7.24573
373 0.045521 311.077 7.29572
374 0.0456817 312.088 7.34588
375 0.0458424 313.098 7.39619
376 0.0460031 314.108 7.44667
377 0.0461638 315.117 7.4973
378 0.0463245 316.126 7.54811
379 0.0464852 317.134 7.59907
380 0.0466459 318.141 7.65019
381 0.0468066 319.148 7.70148
382 0.0469673 320.155 7.75293
383 0.047128 321.16 7.80454
384 0.0472887 322.166 7.85631
385 0.0474494 323.17 7.90824
386 0.0476101 324.174 7.96034
387 0.0477708 325.178 8.01259
388 0.0479315 326.181 8.06501
389 0.0480922 327.183 8.11759
390 0.0482529 328.185 8.17032
391 0.0484136 329.186 8.22322
392 0.0485743 330.187 8.27628
393 0.048735 331.187 8.32951
394 0.0488957 332.186 8.38289
395 0.0490724 333.285 8.4418
396 0.0492492 334.383 8.50091
397 0.049426 335.48 8.56021
398 0.0496028 336.577 8.61971
399 0.0497795 337.673 8.6794
400 0.0499563 338.768 8.73928
401 0.0501331 339.863 8.79936
402 0.0503098 340.957 8.85963
403 0.0504866 342.05 8.92009
404 0.0506634 343.142 8.98075
405 0.0508401 344.234 9.0416
406 0.0510169 345.325 9.10264
407 0.0511937 346.416 9.16388
408 0.0513704 347.506 9.2253
409 0.0515472 348.595 9.28692
410 0.051724 349.683 9.34874
411 0.0519007 350.771 9.41074
412 0.0520775 351.858 9.47294
413 0.0522543 352.944 9.53533
414 0.052431 354.03 9.59791
415 0.0526078 355.115 9.66068
416 0.0527846 356.199 9.72365
417 0.0529613 357.283 9.7868
418 0.0531381 358.366 9.85015
419 0.0533149 359.448 9.91369
420 0.0534916 360.53 9.97742
421 0.0536684 361.611 10.0413
422 0.0538452 362.691 10.1055
423 0.054022 363.77 10.1698
424 0.0541987 364.849 10.2343
425 0.0543755 365.927 10.2989
426 0.0545523 367.005 10.3638
427 0.054729 368.082 10.4289
428 0.0549058 369.158 10.4941
429 0.0550826 370.233 10.5596
430 0.0552593 371.308 10.6252
431 0.0554361 372.382 10.691
432 0.0556129 373.456 10.7571
433 0.0557896 374.528 10.8233
434 0.0559664 375.6 10.8896
435 0.0561432 376.672 10.9562
436 0.0563199 377.743 11.023
437 0.0564967 378.813 11.09
438 0.0566735 379.882 11.1571
439 0.0568502 380.951 11.2245
440 0.057027 382.019 11.292
441 0.0572038 383.086 11.3597
442 0.0573805 384.153 11.4276
443 0.0575573 385.219 11.4957
444 0.0577341 386.284 11.564
445 0.0579109 387.349 11.6325
446 0.0580876 388.413 11.7011
447 0.0582644 389.476 11.77
448 0.0584412 390.539 11.839
449 0.0586179 391.601 11.9082
450 0.0587947 392.662 11.9776
451 0.0589715 393.723 12.0472
452 0.0591482 394.783 12.117
453 0.059325 395.842 12.187
454 0.0595018 396.901 12.2571
455 0.0596785 397.959 12.3275
456 0.0598553 399.016 12.398
457 0.0600321 400.073 12.4687
458 0.0602088 401.129 12.5397
459 0.0603856 402.185 12.6107
460 0.0605624 403.239 12.682
461 0.0607391 404.293 12.7535
462 0.0609159 405.347 12.8251
463 0.0610927 406.399 12.897
464 0.0612694 407.451 12.969
465 0.0614462 408.503 13.0412
466 0.061623 409.553 13.1136
467 0.0617997 410.603 13.1862
468 0.0619765 411.653 13.259
469 0.0621533 412.702 13.3319
470 0.0623301 413.75 13.4051
471 0.0625068 414.797 13.4784
472 0.0626836 415.844 13.5519
473 0.0628604 416.89 13.6256
474 0.0630371 417.935 13.6995
475 0.0632139 418.98 13.7735
476 0.0633907 420.024 13.8478
477 0.0635674 421.068 13.9222
478 0.0637442 422.111 13.9968
479 0.063921 423.153 14.0716
480 0.0640977 424.194 14.1466
481 0.0642745 425.235 14.2218
482 0.0644513 426.275 14.2971
483 0.064628 427.315 14.3726
484 0.0648048 428.354 14.4484
485 0.0649816 429.392 14.5243
486 0.0651583 430.43 14.6004
487 0.0653351 431.467 14.6766
488 0.0655119 432.503 14.7531
489 0.0656886 433.538 14.8297
490 0.0658654 434.573 14.9065
491 0.0660422 435.608 14.9835
492 0.0662189 436.641 15.0607
493 0.0663957 437.674 15.1381
494 0.0665725 438.707 15.2156
495 0.0667493 439.739 15.2934
496 0.066926 440.77 15.3713
497 0.0671028 441.8 15.4494
498 0.0672796 442.83 15.5277
499 0.0674563 443.859 15.6061
500 0.0676331 444.888 15.6848
501 0.0678099 445.915 15.7636
502 0.0679866 446.943 15.8426
503 0.0681634 447.969 15.9218
504 0.0683402 448.995 16.0011
505 0.0685169 450.02 16.0807
506 0.0686937 451.045 16.1604
507 0.0688705 452.069 16.2403
508 0.0690472 453.092 16.3204
509 0.069224 454.115 16.4007
510 0.0694008 455.137 16.4812
511 0.0695775 456.158 16.5618
512 0.0697543 457.179 16.6426
513 0.0699311 458.199 16.7236
514 0.0701078 459.219 16.8048
515 0.0702846 460.238 16.8861
516 0.0704614 461.256 16.9677
517 0.0706381 462.273 17.0494
518 0.0708149 463.29 17.1313
519 0.0709917 464.307 17.2133
520 0.0711685 465.322 17.2956
521 0.0713452 466.337 17.378
522 0.071522 467.352 17.4606
523 0.0716988 468.365 17.5434
524 0.0718755 469.379 17.6264
525 0.0720523 470.391 17.7096
526 0.0722291 471.403 17.7929
527 0.0724058 472.414 17.8764
528 0.0725826 473.425 17.9601
529 0.0727594 474.435 18.0439
530 0.0729361 475.444 18.128
531 0.0731129 476.453 18.2122
532 0.0732897 477.461 18.2966
533 0.0734664 478.468 18.3812
534 0.0736432 479.475 18.4659
535 0.07382 480.481 18.5509
536 0.0739967 481.486 18.636
537 0.0741735 482.491 18.7213
538 0.0743503 483.495 18.8067
539 0.074527 484.499 18.8924
540 0.0747038 485.502 18.9782
541 0.0748806 486.504 19.0642
542 0.0750573 487.506 19.1504
543 0.0752341 488.507 19.2367
544 0.0754109 489.508 19.3233
545 0.0755877 490.508 19.41
546 0.0757821 491.607 19.5056
547 0.0759765 492.705 19.6014
548 0.076171 493.803 19.6974
549 0.0763654 494.899 19.7936
550 0.0765599 495.995 19.8901
551 0.0767543 497.091 19.9867
552 0.0769488 498.185 20.0836
553 0.0771432 499.279 20.1807
554 0.0773377 500.372 20.278
555 0.0775321 501.464 20.3755
556 0.0777265 502.556 20.4732
557 0.077921 503.647 20.5711
558 0.0781154 504.737 20.6693
559 0.0783099 505.826 20.7676
560 0.0785043 506.915 20.8662
561 0.0786988 508.002 20.965
562 0.0788932 509.089 21.064
563 0.0790877 510.176 21.1632
564 0.0792821 511.261 21.2626
565 0.0794766 512.346 21.3622
566 0.079671 513.43 21.462
567 0.0798654 514.513 21.5621
568 0.0800599 515.596 21.6623
569 0.0802543 516.678 21.7628
570 0.0804488 517.759 21.8635
571 0.0806432 518.839 21.9644
572 0.0808377 519.919 22.0654
573 0.0810321 520.997 22.1668
574 0.0812266 522.075 22.2683
575 0.081421 523.153 22.37
576 0.0816154 524.229 22.4719
577 0.0818099 525.305 22.5741
578 0.0820043 526.38 22.6764
579 0.0821988 527.455 22.779
580 0.0823932 528.528 22.8817
581 0.0825877 529.601 22.9847
582 0.0827821 530.673 23.0879
583 0.0829766 531.745 23.1913
584 0.083171 532.815 23.2949
585 0.0833654 533.885 23.3987
586 0.0835599 534.954 23.5027
587 0.0837543 536.023 23.607
588 0.0839488 537.091 23.7114
589 0.0841432 538.158 23.816
590 0.0843377 539.224 23.9209
591 0.0845321 540.289 24.026
592 0.0847266 541.354 24.1312
593 0.084921 542.418 24.2367
594 0.0851155 543.481 24.3424
595 0.0853099 544.544 24.4482
596 0.0855043 545.606 24.5543
597 0.0856988 546.667 24.6606
598 0.0858932 547.727 24.7671
599 0.0860877 548.787 24.8738
600 0.0862821 549.846 24.9808
601 0.0864766 550.904 25.0879
602 0.086671 551.962 25.1952
603 0.0868655 553.018 25.3027
604 0.0870599 554.074 25.4105
605 0.0872543 555.13 25.5184
606 0.0874488 556.184 25.6266
607 0.0876432 557.238 25.7349
608 0.0878377 558.291 25.8435
609 0.0880321 559.343 25.9522
610 0.0882266 560.395 26.0612
611 0.088421 561.446 26.1704
612 0.0886155 562.496 26.2797
613 0.0888099 563.546 26.3893
614 0.0890043 564.594 26.4991
615 0.0891988 565.642 26.6091
616 0.0893932 566.69 26.7193
617 0.0895877 567.736 26.8297
618 0.0897821 568.782 26.9403
619 0.0899766 569.827 27.0511
620 0.090171 570.872 27.1621
621 0.0903655 571.916 27.2733
622 0.0905599 572.959 27.3847
623 0.0907544 574.001 27.4963
624 0.0909488 575.042 27.6081
625 0.0911432 576.083 27.7201
626 0.0913377 577.123 27.8324
627 0.0915321 578.163 27.9448
628 0.0917266 579.201 28.0574
629 0.091921 580.239 28.1702
630 0.0921155 581.277 28.2832
631 0.0923099 582.313 28.3965
632 0.0925044 583.349 28.5099
633 0.0926988 584.384 28.6235
634 0.0928932 585.419 28.7374
635 0.0930877 586.452 28.8514
636 0.0932821 587.485 28.9656
637 0.0934766 588.518 29.0801
638 0.093671 589.549 29.1947
639 0.0938655 590.58 29.3095
640 0.0940599 591.61 29.4246
641 0.0942544 592.64 29.5398
642 0.0944488 593.668 29.6552
643 0.0946432 594.696 29.7709
644 0.0948377 595.724 29.8867
645 0.0950321 596.75 30.0027
646 0.0952266 597.776 30.119
647 0.095421 598.801 30.2354
648 0.0956155 599.826 30.352
649 0.0958099 600.85 30.4689
650 0.0960044 601.873 30.5859
651 0.0961988 602.895 30.7031
652 0.0963933 603.917 30.8206
653 0.0965877 604.938 30.9382
654 0.0967821 605.958 31.056
655 0.0969766 606.978 31.174
656 0.097171 607.997 31.2923
657 0.0973655 609.015 31.4107
658 0.0975599 610.032 31.5293
659 0.0977544 611.049 31.6481
660 0.0979488 612.065 31.7671
661 0.0981433 613.081 31.8863
662 0.0983377 614.095 32.0058
663 0.0985321 615.109 32.1254
664 0.0987266 616.122 32.2452
665 0.098921 617.135 32.3652
666 0.0991155 618.147 32.4854
667 0.0993099 619.158 32.6057
668 0.0995044 620.169 32.7263
669 0.0996988 621.178 32.8471
670 0.0998933 622.188 32.9681
671 0.100088 623.196 33.0893
672 0.100282 624.204 33.2107
673 0.100477 625.211 33.3322
674 0.100671 626.217 33.454
675 0.100865 627.223 33.5759
676 0.10106 628.228 33.6981
677 0.101254 629.232 33.8205
678 0.101449 630.236 33.943
679 0.101643 631.239 34.0657
680 0.101838 632.241 34.1887
681 0.102032 633.242 34.3118
682 0.102227 634.243 34.4351
683 0.102421 635.243 34.5586
684 0.102615 636.243 34.6824
685 0.102829 637.341 34.8187
686 0.103043 638.439 34.9552
687 0.103257 639.536 35.092
688 0.103471 640.632 35.2291
689 0.103685 641.728 35.3663
690 0.103899 642.822 35.5038
691 0.104113 643.916 35.6415
692 0.104327 645.008 35.7795
693 0.10454 646.1 35.9177
694 0.104754 647.192 36.0561
695 0.104968 648.282 36.1948
696 0.105182 649.372 36.3337
697 0.105396 650.46 36.4728
698 0.10561 651.548 36.6122
699 0.105824 652.635 36.7517
700 0.106038 653.721 36.8916
701 0.106252 654.807 37.0316
702 0.106465 655.891 37.1719
703 0.106679 656.975 37.3124
704 0.106893 658.058 37.4532
705 0.107107 659.14 37.5942
706 0.107321 660.222 37.7354
707 0.107535 661.302 37.8768
708 0.107749 662.382 38.0185
709 0.107963 663.461 38.1604
710 0.108177 664.539 38.3025
711 0.10839 665.616 38.4449
712 0.108604 666.693 38.5875
713 0.108818 667.768 38.7303
714 0.109032 668.843 38.8734
715 0.109246 669.917 39.0167
716 0.10946 670.99 39.1602
717 0.109674 672.063 39.304
718 0.109888 673.134 39.4479
719 0.110102 674.205 39.5921
720 0.110316 675.275 39.7366
721 0.110529 676.344 39.8812
722 0.110743 677.412 40.0261
723 0.110957 678.48 40.1712
724 0.111171 679.547 40.3166
725 0.111385 680.613 40.4622
726 0.111599 681.678 40.608
727 0.111813 682.742 40.754
728 0.112027 683.806 40.9003
729 0.112241 684.868 41.0467
730 0.112454 685.93 41.1935
731 0.112668 686.991 41.3404
732 0.112882 688.052 41.4876
733 0.113096 689.111 41.635
734 0.11331 690.17 41.7826
735 0.113524 691.228 41.9304
736 0.113738 692.285 42.0785
737 0.113952 693.341 42.2268
738 0.114166 694.397 42.3753
739 0.114379 695.452 42.5241
740 0.114593 696.506 42.673
741 0.114807 697.559 42.8222
742 0.115021 698.611 42.9717
743 0.115235 699.663 43.1213
744 0.115449 700.714 43.2712
745 0.115663 701.764 43.4213
746 0.115877 702.813 43.5716
747 0.116091 703.861 43.7222
748 0.116304 704.909 43.8729
749 0.116518 705.956 44.0239
750 0.116732 707.002 44.1752
751 0.116946 708.047 44.3266
752 0.11716 709.091 44.4783
753 0.117374 710.135 44.6302
754 0.117588 711.178 44.7823
755 0.117802 712.22 44.9346
756 0.118016 713.261 45.0872
757 0.118229 714.302 45.24
758 0.118443 715.342 45.393
759 0.118657 716.381 45.5462
760 0.118871 717.419 45.6996
761 0.119085 718.456 45.8533
762 0.119299 719.493 46.0072
763 0.119513 720.529 46.1613
764 0.119727 721.564 46.3156
765 0.119941 722.598 46.4702
766 0.120154 723.632 46.625
767 0.120368 724.665 46.78
768 0.120582 725.697 46.9352
769 0.120796 726.728 47.0906
770 0.12101 727.758 47.2463
771 0.121224 728.788 47.4022
772 0.121438 729.817 47.5583
773 0.121652 730.845 47.7146
774 0.121866 731.872 47.8711
775 0.122079 732.899 48.0279
776 0.122293 733.924 48.1849
777 0.122507 734.949 48.3421
778 0.122721 735.974 48.4995
779 0.122935 736.997 48.6571
780 0.123149 738.02 48.815
781 0.123363 739.042 48.973
782 0.123577 740.063 49.1313
783 0.123791 741.083 49.2898
784 0.124004 742.103 49.4486
785 0.124218 743.122 49.6075
786 0.124432 744.14 49.7667
787 0.124646 745.157 49.9261
788 0.12486 746.174 50.0857
789 0.125074 747.189 50.2455
790 0.125288 748.205 50.4055
791 0.125502 749.219 50.5658
792 0.125716 750.232 50.7262
793 0.125929 751.245 50.8869
794 0.126143 752.257 51.0478
795 0.126357 753.268 51.2089
796 0.126571 754.279 51.3703
797 0.126785 755.288 51.5318
798 0.126999 756.297 51.6936
799 0.127213 757.306 51.8556
800 0.127427 758.313 52.0177
801 0.127641 759.32 52.1802
802 0.127854 760.326 52.3428
803 0.128068 761.331 52.5056
804 0.128282 762.335 52.6687
805 0.128496 763.339 52.8319
806 0.12871 764.342 52.9954
807 0.128924 765.344 53.1591
808 0.129138 766.345 53.323
809 0.129352 767.346 53.4872
810 0.129566 768.346 53.6515
811 0.129801 769.445 53.8325
812 0.130036 770.543 54.0138
813 0.130271 771.64 54.1954
814 0.130507 772.737 54.3772
815 0.130742 773.832 54.5593
816 0.130977 774.926 54.7416
817 0.131212 776.02 54.9242
818 0.131448 777.113 55.107
819 0.131683 778.204 55.2901
820 0.131918 779.295 55.4735
821 0.132154 780.385 55.6571
822 0.132389 781.474 55.8409
823 0.132624 782.563 56.025
824 0.132859 783.65 56.2094
825 0.133095 784.736 56.394
826 0.13333 785.822 56.5789
827 0.133565 786.906 56.7641
828 0.133801 787.99 56.9495
829 0.134036 789.073 57.1351
830 0.134271 790.155 57.321
831 0.134506 791.236 57.5072
832 0.134742 792.316 57.6936
833 0.134977 793.395 57.8803
834 0.135212 794.474 58.0672
835 0.135447 795.551 58.2544
836 0.135683 796.628 58.4418
837 0.135918 797.703 58.6295
838 0.136153 798.778 58.8174
839 0.136389 799.852 59.0056
840 0.136624 800.925 59.194
841 0.136859 801.997 59.3827
842 0.137094 803.068 59.5717
843 0.13733 804.139 59.7609
844 0.137565 805.208 59.9503
845 0.1378 806.277 60.14
846 0.138036 807.345 60.33
847 0.138271 808.412 60.5202
848 0.138506 809.478 60.7106
849 0.138741 810.543 60.9013
850 0.138977 811.607 61.0923
851 0.139212 812.67 61.2835
852 0.139447 813.733 61.4749
853 0.139683 814.794 61.6667
854 0.139918 815.855 61.8586
855 0.140153 816.915 62.0508
856 0.140388 817.974 62.2433
857 0.140624 819.032 62.436
858 0.140859 820.089 62.6289
859 0.141094 821.146 62.8221
860 0.141329 822.201 63.0156
861 0.141565 823.256 63.2092
862 0.1418 824.309 63.4032
863 0.142035 825.362 63.5974
864 0.142271 826.414 63.7918
865 0.142506 827.466 63.9865
866 0.142741 828.516 64.1814
867 0.142976 829.565 64.3766
868 0.143212 830.614 64.572
869 0.143447 831.662 64.7677
870 0.143682 832.708 64.9636
871 0.143918 833.754 65.1598
872 0.144153 834.8 65.3562
873 0.144388 835.844 65.5529
874 0.144623 836.887 65.7498
875 0.144859 837.93 65.9469
876 0.145094 838.971 66.1443
877 0.145329 840.012 66.3419
878 0.145564 841.052 66.5398
879 0.1458 842.091 66.7379
880 0.146035 843.13 66.9363
881 0.14627 844.167 67.1349
882 0.146506 845.204 67.3338
883 0.146741 846.239 67.5329
884 0.146976 847.274 67.7322
885 0.147211 848.308 67.9318
886 0.147447 849.341 68.1316
887 0.147682 850.374 68.3317
888 0.147917 851.405 68.532
889 0.148153 852.436 68.7326
890 0.148388 853.466 68.9334
891 0.148623 854.495 69.1344
892 0.148858 855.523 69.3357
893 0.149094 856.55 69.5373
894 0.149329 857.576 69.739
895 0.149564 858.602 69.941
896 0.149799 859.626 70.1433
897 0.150035 860.65 70.3458
898 0.15027 861.673 70.5485
899 0.150505 862.696 70.7515
900 0.150741 863.717 70.9547
901 0.150976 864.737 71.1582
902 0.151211 865.757 71.3619
903 0.151446 866.776 71.5658
904 0.151682 867.794 71.77
905 0.151917 868.811 71.9744
906 0.152152 869.827 72.179
907 0.152388 870.843 72.3839
908 0.152623 871.858 72.589
909 0.152858 872.871 72.7944
910 0.153093 873.884 73
911 0.153329 874.897 73.2059
912 0.153564 875.908 73.4119
913 0.153799 876.918 73.6183
914 0.154034 877.928 73.8248
915 0.15427 878.937 74.0316
916 0.154505 879.945 74.2386
917 0.15474 880.952 74.4459
918 0.154976 881.959 74.6534
919 0.155211 882.964 74.8612
920 0.155446 883.969 75.0691
921 0.155681 884.973 75.2774
922 0.155917 885.976 75.4858
923 0.156152 886.978 75.6945
924 0.156387 887.98 75.9034
925 0.156623 888.98 76.1126
926 0.156858 889.98 76.322
927 0.157117 891.079 76.5526
928 0.157375 892.177 76.7835
929 0.157634 893.273 77.0147
930 0.157893 894.369 77.2461
931 0.158152 895.464 77.4779
932 0.158411 896.558 77.7099
933 0.158669 897.651 77.9422
934 0.158928 898.743 78.1748
935 0.159187 899.834 78.4077
936 0.159446 900.924 78.6409
937 0.159705 902.013 78.8743
938 0.159963 903.101 79.1081
939 0.160222 904.188 79.3421
940 0.160481 905.274 79.5764
941 0.16074 906.359 79.8109
942 0.160999 907.443 80.0458
943 0.161258 908.526 80.2809
944 0.161516 909.608 80.5163
945 0.161775 910.689 80.752
946 0.162034 911.77 80.988
947 0.162293 912.849 81.2242
948 0.162552 913.927 81.4608
949 0.16281 915.004 81.6976
950 0.163069 916.081 81.9347
951 0.163328 917.156 82.172
952 0.163587 918.23 82.4097
953 0.163846 919.304 82.6476
954 0.164104 920.376 82.8858
955 0.164363 921.448 83.1243
956 0.164622 922.518 83.363
957 0.164881 923.588 83.6021
958 0.16514 924.656 83.8414
959 0.165398 925.724 84.0809
960 0.165657 926.79 84.3208
961 0.165916 927.856 84.5609
962 0.166175 928.921 84.8014
963 0.166434 929.985 85.042
964 0.166692 931.048 85.283
965 0.166951 932.109 85.5242
966 0.16721 933.17 85.7657
967 0.167469 934.23 86.0075
968 0.167728 935.289 86.2496
969 0.167986 936.347 86.4919
970 0.168245 937.405 86.7345
971 0.168504 938.461 86.9774
972 0.168763 939.516 87.2206
973 0.169022 940.57 87.464
974 0.169281 941.624 87.7077
975 0.169539 942.676 87.9516
976 0.169798 943.727 88.1959
977 0.170057 944.778 88.4404
978 0.170316 945.828 88.6852
979 0.170575 946.876 88.9302
980 0.170833 947.924 89.1756
981 0.171092 948.971 89.4212
982 0.171351 950.016 89.667
983 0.17161 951.061 89.9132
984 0.171869 952.105 90.1596
985 0.172127 953.148 90.4063
986 0.172386 954.19 90.6532
987 0.172645 955.231 90.9004
988 0.172904 956.271 91.1479
989 0.173163 957.311 91.3957
990 0.173421 958.349 91.6437
991 0.17368 959.386 91.892
992 0.173939 960.423 92.1406
993 0.174198 961.458 92.3894
994 0.174457 962.493 92.6385
995 0.174715 963.527 92.8879
996 0.174974 964.559 93.1375
997 0.175233 965.591 93.3874
998 0.175492 966.622 93.6376
999 0.175751 967.652 93.888
1000 0.176009 968.681 94.1387
1001 0.176268 969.709 94.3897
1002 0.176527 970.737 94.6409
1003 0.176786 971.763 94.8924
1004 0.177045 972.788 95.1442
1005 0.177303 973.813 95.3962
1006 0.177562 974.836 95.6485
1007 0.177821 975.859 95.9011
1008 0.17808 976.881 96.1539
1009 0.178339 977.901 96.407
1010 0.178598 978.921 96.6603
1011 0.178856 979.94 96.9139
1012 0.179115 980.958 97.1678
1013 0.179374 981.976 97.4219
1014 0.179633 982.992 97.6764
1015 0.179892 984.007 97.931
1016 0.18015 985.022 98.186
1017 0.180409 986.035 98.4411
1018 0.180668 987.048 98.6966
1019 0.180927 988.059 98.9523
1020 0.181186 989.07 99.2083
1021 0.181444 990.08 99.4645
1022 0.181703 991.089 99.721
1023 0.181962 992.097 99.9778
1024 0.182221 993.104 100.235
1025 0.18248 994.111 100.492
1026 0.182738 995.116 100.75
1027 0.182997 996.121 101.007
1028 0.183256 997.124 101.265
1029 0.183515 998.127 101.524
1030 0.183774 999.129 101.782
1031 0.184032 1000.13 102.041
1032 0.184291 1001.13 102.3
1033 0.18455 1002.13 102.56
1034 0.184835 1003.23 102.845
1035 0.185119 1004.32 103.131
1036 0.185404 1005.42 103.417
1037 0.185689 1006.51 103.704
1038 0.185974 1007.61 103.991
1039 0.186258 1008.7 104.278
1040 0.186543 1009.79 104.565
1041 0.186828 1010.88 104.853
1042 0.187112 1011.97 105.141
1043 0.187397 1013.06 105.43
1044 0.187682 1014.15 105.718
1045 0.187966 1015.23 106.008
1046 0.188251 1016.32 106.297
1047 0.188536 1017.4 106.586
1048 0.18882 1018.49 106.876
1049 0.189105 1019.57 107.167
1050 0.18939 1020.65 107.457
1051 0.189674 1021.73 107.748
1052 0.189959 1022.81 108.039
1053 0.190244 1023.89 108.331
1054 0.190528 1024.96 108.623
1055 0.190813 1026.04 108.915
1056 0.191098 1027.11 109.207
1057 0.191383 1028.19 109.5
1058 0.191667 1029.26 109.793
1059 0.191952 1030.33 110.086
1060 0.192237 1031.4 110.38
1061 0.192521 1032.47 110.674
1062 0.192806 1033.54 110.968
1063 0.193091 1034.61 111.262
1064 0.193375 1035.67 111.557
1065 0.19366 1036.74 111.852
1066 0.193945 1037.8 112.148
1067 0.194229 1038.86 112.444
1068 0.194514 1039.93 112.74
1069 0.194799 1040.99 113.036
1070 0.195083 1042.05 113.333
1071 0.195368 1043.11 113.63
1072 0.195653 1044.16 113.927
1073 0.195938 1045.22 114.224
1074 0.196222 1046.28 114.522
1075 0.196507 1047.33 114.821
1076 0.196792 1048.38 115.119
1077 0.197076 1049.44 115.418
1078 0.197361 1050.49 115.717
1079 0.197646 1051.54 116.016
1080 0.19793 1052.59 116.316
1081 0.198215 1053.64 116.616
1082 0.1985 1054.69 116.916
1083 0.198784 1055.73 117.217
1084 0.199069 1056.78 117.517
1085 0.199354 1057.82 117.819
1086 0.199638 1058.87 118.12
1087 0.199923 1059.91 118.422
1088 0.200208 1060.95 118.724
1089 0.200493 1061.99 119.026
1090 0.200777 1063.03 119.329
1091 0.201062 1064.07 119.632
1092 0.201347 1065.11 119.935
1093 0.201631 1066.14 120.238
1094 0.201916 1067.18 120.542
1095 0.202201 1068.21 120.846
1096 0.202485 1069.25 121.151
1097 0.20277 1070.28 121.455
1098 0.203055 1071.31 121.76
1099 0.203339 1072.34 122.066
1100 0.203624 1073.37 122.371
1101 0.203909 1074.4 122.677
1102 0.204193 1075.42 122.983
1103 0.204478 1076.45 123.29
1104 0.204763 1077.48 123.597
1105 0.205048 1078.5 123.904
1106 0.205332 1079.52 124.211
1107 0.205617 1080.55 124.518
1108 0.205902 1081.57 124.826
1109 0.206186 1082.59 125.135
1110 0.206471 1083.61 125.443
1111 0.206756 1084.63 125.752
1112 0.20704 1085.64 126.061
1113 0.207325 1086.66 126.37
1114 0.20761 1087.68 126.68
1115 0.207894 1088.69 126.99
1116 0.208179 1089.7 127.3
1117 0.208464 1090.72 127.611
1118 0.208748 1091.73 127.921
1119 0.209033 1092.74 128.232
1120 0.209318 1093.75 128.544
1121 0.209602 1094.76 128.856
1122 0.209887 1095.76 129.167
1123 0.210172 1096.77 129.48
1124 0.210457 1097.78 129.792
1125 0.210741 1098.78 130.105
1126 0.211026 1099.78 130.418
1127 0.211311 1100.79 130.732
1128 0.211595 1101.79 131.045
1129 0.21188 1102.79 131.359
1130 0.212165 1103.79 131.673
1131 0.212478 1104.89 132.019
1132 0.212791 1105.98 132.366
1133 0.213104 1107.08 132.712
1134 0.213417 1108.18 133.059
1135 0.21373 1109.27 133.407
1136 0.214044 1110.36 133.755
1137 0.214357 1111.45 134.103
1138 0.21467 1112.54 134.451
1139 0.214983 1113.63 134.8
1140 0.215296 1114.72 135.149
1141 0.215609 1115.81 135.498
1142 0.215923 1116.9 135.848
1143 0.216236 1117.98 136.198
1144 0.216549 1119.06 136.549
1145 0.216862 1120.15 136.899
1146 0.217175 1121.23 137.25
1147 0.217488 1122.31 137.602
1148 0.217801 1123.39 137.954
1149 0.218115 1124.46 138.306
1150 0.218428 1125.54 138.658
1151 0.218741 1126.62 139.011
1152 0.219054 1127.69 139.364
1153 0.219367 1128.76 139.718
1154 0.21968 1129.83 140.072
1155 0.219994 1130.91 140.426
1156 0.220307 1131.98 140.78
1157 0.22062 1133.04 141.135
1158 0.220933 1134.11 141.49
1159 0.221246 1135.18 141.846
1160 0.221559 1136.24 142.201
1161 0.221872 1137.31 142.558
1162 0.222186 1138.37 142.914
1163 0.222499 1139.43 143.271
1164 0.222812 1140.49 143.628
1165 0.223125 1141.55 143.986
1166 0.223438 1142.61 144.343
1167 0.223751 1143.67 144.701
1168 0.224065 1144.72 145.06
1169 0.224378 1145.78 145.419
1170 0.224691 1146.83 145.778
1171 0.225004 1147.89 146.137
1172 0.225317 1148.94 146.497
1173 0.22563 1149.99 146.857
1174 0.225944 1151.04 147.218
1175 0.226257 1152.09 147.579
1176 0.22657 1153.13 147.94
1177 0.226883 1154.18 148.301
1178 0.227196 1155.23 148.663
1179 0.227509 1156.27 149.025
1180 0.227822 1157.31 149.387
1181 0.228136 1158.35 149.75
1182 0.228449 1159.39 150.113
1183 0.228762 1160.43 150.477
1184 0.229075 1161.47 150.84
1185 0.229388 1162.51 151.204
1186 0.229701 1163.55 151.569
1187 0.230015 1164.58 151.933
1188 0.230328 1165.62 152.298
1189 0.230641 1166.65 152.664
1190 0.230954 1167.68 153.029
1191 0.231267 1168.71 153.395
1192 0.23158 1169.74 153.762
1193 0.231893 1170.77 154.128
1194 0.232207 1171.8 154.495
1195 0.23252 1172.82 154.863
1196 0.232833 1173.85 155.23
1197 0.233146 1174.87 155.598
1198 0.233459 1175.9 155.966
1199 0.233772 1176.92 156.335
1200 0.234086 1177.94 156.704
1201 0.234399 1178.96 157.073
1202 0.234712 1179.98 157.442
1203 0.235025 1181 157.812
1204 0.235338 1182.01 158.182
1205 0.235651 1183.03 158.553
1206 0.235964 1184.04 158.924
1207 0.236278 1185.06 159.295
1208 0.236591 1186.07 159.666
1209 0.236904 1187.08 160.038
1210 0.237217 1188.09 160.41
1211 0.23753 1189.1 160.782
1212 0.237843 1190.11 161.155
1213 0.238157 1191.11 161.528
1214 0.23847 1192.12 161.901
1215 0.238783 1193.13 162.275
1216 0.239096 1194.13 162.649
1217 0.239409 1195.13 163.023
1218 0.239722 1196.13 163.398
1219 0.240036 1197.14 163.773
1220 0.240349 1198.14 164.148
1221 0.240693 1199.23 164.561
1222 0.241038 1200.33 164.975
1223 0.241382 1201.43 165.388
1224 0.241727 1202.52 165.803
1225 0.242071 1203.62 166.217
1226 0.242415 1204.71 166.632
1227 0.24276 1205.8 167.048
1228 0.243104 1206.89 167.463
1229 0.243449 1207.98 167.879
1230 0.243793 1209.06 168.296
1231 0.244138 1210.15 168.713
1232 0.244482 1211.23 169.13
1233 0.244827 1212.32 169.548
1234 0.245171 1213.4 169.966
1235 0.245516 1214.48 170.384
1236 0.24586 1215.56 170.803
1237 0.246205 1216.64 171.222
1238 0.246549 1217.72 171.641
1239 0.246894 1218.79 172.061
1240 0.247238 1219.87 172.481
1241 0.247583 1220.94 172.902
1242 0.247927 1222.01 173.323
1243 0.248271 1223.08 173.744
1244 0.248616 1224.15 174.166
1245 0.24896 1225.22 174.588
1246 0.249305 1226.29 175.01
1247 0.249649 1227.35 175.433
1248 0.249994 1228.42 175.856
1249 0.250338 1229.48 176.28
1250 0.250683 1230.55 176.704
1251 0.251027 1231.61 177.128
1252 0.251372 1232.67 177.553
1253 0.251716 1233.73 177.977
1254 0.252061 1234.78 178.403
1255 0.252405 1235.84 178.829
1256 0.25275 1236.89 179.255
1257 0.253094 1237.95 179.681
1258 0.253439 1239 180.108
1259 0.253783 1240.05 180.535
1260 0.254127 1241.1 180.963
1261 0.254472 1242.15 181.39
1262 0.254816 1243.2 181.819
1263 0.255161 1244.25 182.247
1264 0.255505 1245.29 182.676
1265 0.25585 1246.34 183.106
1266 0.256194 1247.38 183.535
1267 0.256539 1248.42 183.965
1268 0.256883 1249.46 184.396
1269 0.257228 1250.5 184.826
1270 0.257572 1251.54 185.258
1271 0.257917 1252.58 185.689
1272 0.258261 1253.61 186.121
1273 0.258606 1254.65 186.553
1274 0.25895 1255.68 186.986
1275 0.259295 1256.71 187.419
1276 0.259639 1257.74 187.852
1277 0.259983 1258.77 188.285
1278 0.260328 1259.8 188.719
1279 0.260672 1260.83 189.154
1280 0.261017 1261.86 189.588
1281 0.261361 1262.88 190.023
1282 0.261706 1263.91 190.459
1283 0.26205 1264.93 190.895
1284 0.262395 1265.95 191.331
1285 0.262739 1266.97 191.767
1286 0.263084 1267.99 192.204
1287 0.263428 1269.01 192.641
1288 0.263773 1270.03 193.078
1289 0.264117 1271.04 193.516
1290 0.264462 1272.06 193.954
1291 0.264806 1273.07 194.393
1292 0.265151 1274.08 194.832
1293 0.265495 1275.1 195.271
1294 0.26584 1276.11 195.711
1295 0.266184 1277.12 196.151
1296 0.266528 1278.12 196.591
1297 0.266873 1279.13 197.032
1298 0.267217 1280.14 197.472
1299 0.267562 1281.14 197.914
1300 0.267906 1282.14 198.355
1301 0.268251 1283.15 198.797
1302 0.268595 1284.15 199.24
1303 0.26894 1285.15 199.683
1304 0.269319 1286.25 200.17
1305 0.269698 1287.34 200.658
1306 0.270076 1288.44 201.146
1307 0.270455 1289.53 201.635
1308 0.270834 1290.63 202.124
1309 0.271213 1291.72 202.613
1310 0.271592 1292.81 203.103
1311 0.271971 1293.9 203.593
1312 0.27235 1294.99 204.084
1313 0.272729 1296.07 204.575
1314 0.273108 1297.16 205.066
1315 0.273487 1298.24 205.558
1316 0.273866 1299.32 206.051
1317 0.274245 1300.4 206.544
1318 0.274624 1301.48 207.037
1319 0.275002 1302.56 207.53
1320 0.275381 1303.64 208.024
1321 0.27576 1304.72 208.519
1322 0.276139 1305.79 209.013
1323 0.276518 1306.86 209.509
1324 0.276897 1307.93 210.004
1325 0.277276 1309 210.5
1326 0.277655 1310.07 210.997
1327 0.278034 1311.14 211.493
1328 0.278413 1312.21 211.991
1329 0.278792 1313.27 212.488
1330 0.279171 1314.34 212.986
1331 0.279549 1315.4 213.485
1332 0.279928 1316.46 213.984
1333 0.280307 1317.52 214.483
1334 0.280686 1318.58 214.982
1335 0.281065 1319.64 215.482
1336 0.281444 1320.69 215.983
1337 0.281823 1321.75 216.484
1338 0.282202 1322.8 216.985
1339 0.282581 1323.85 217.487
1340 0.28296 1324.9 217.989
1341 0.283339 1325.95 218.491
1342 0.283718 1327 218.994
1343 0.284096 1328.05 219.497
1344 0.284475 1329.09 220.001
1345 0.284854 1330.14 220.505
1346 0.285233 1331.18 221.009
1347 0.285612 1332.22 221.514
1348 0.285991 1333.26 222.019
1349 0.28637 1334.3 222.525
1350 0.286749 1335.34 223.031
1351 0.287128 1336.37 223.537
1352 0.287507 1337.41 224.044
1353 0.287886 1338.44 224.551
1354 0.288265 1339.48 225.059
1355 0.288643 1340.51 225.566
1356 0.289022 1341.54 226.075
1357 0.289401 1342.57 226.584
1358 0.28978 1343.59 227.093
1359 0.290159 1344.62 227.602
1360 0.290538 1345.65 228.112
1361 0.290917 1346.67 228.622
1362 0.291296 1347.69 229.133
1363 0.291675 1348.71 229.644
1364 0.292054 1349.73 230.155
1365 0.292433 1350.75 230.667
1366 0.292812 1351.77 231.179
1367 0.29319 1352.79 231.692
1368 0.293569 1353.8 232.205
1369 0.293948 1354.81 232.718
1370 0.294327 1355.83 233.232
1371 0.294706 1356.84 233.746
1372 0.295085 1357.85 234.261
1373 0.295464 1358.86 234.776
1374 0.295843 1359.87 235.291
1375 0.296222 1360.87 235.807
1376 0.296601 1361.88 236.323
1377 0.29698 1362.88 236.839
1378 0.297359 1363.88 237.356
1379 0.297738 1364.89 237.873
1380 0.298116 1365.89 238.391
1381 0.298495 1366.89 238.909
1382 0.298912 1367.98 239.479
1383 0.299329 1369.08 240.049
1384 0.299746 1370.17 240.621
1385 0.300163 1371.27 241.192
1386 0.300579 1372.36 241.764
1387 0.300996 1373.45 242.337
1388 0.301413 1374.54 242.909
1389 0.30183 1375.63 243.483
1390 0.302247 1376.71 244.057
1391 0.302663 1377.8 244.631
1392 0.30308 1378.88 245.206
1393 0.303497 1379.96 245.781
1394 0.303914 1381.04 246.356
1395 0.304331 1382.12 246.933
1396 0.304747 1383.2 247.509
1397 0.305164 1384.27 248.086
1398 0.305581 1385.35 248.664
1399 0.305998 1386.42 249.241
1400 0.306415 1387.49 249.82
1401 0.306832 1388.56 250.398
1402 0.307248 1389.63 250.978
1403 0.307665 1390.7 251.557
1404 0.308082 1391.76 252.137
1405 0.308499 1392.83 252.718
1406 0.308916 1393.9 253.299
1407 0.309332 1395.03 253.88
1408 0.309749 1396.24 254.462
1409 0.310166 1397.51 255.045
1410 0.310583 1398.86 255.628
1411 0.311 1400.27 256.212
1412 0.311416 1401.76 256.796
1413 0.311833 1403.32 257.381
1414 0.31225 1404.95 257.966
1415 0.312667 1406.65 258.553
1416 0.313084 1408.42 259.14
1417 0.3135 1410.26 259.728
1418 0.313917 1412.16 260.316
1419 0.314334 1414.13 260.906
1420 0.314751 1416.16 261.496
1421 0.315084 1417.82 261.969
1422 0.315418 1419.53 262.442
1423 0.315751 1421.26 262.916
1424 0.316085 1423.03 263.39
1425 0.316418 1424.82 263.865
1426 0.316752 1426.64 264.341
1427 0.317085 1428.48 264.817
1428 0.317419 1430.34 265.294
1429 0.317752 1432.23 265.772
1430 0.318085 1434.13 266.25
1431 0.318419 1436.04 266.729
1432 0.318752 1437.97 267.209
1433 0.319086 1439.91 267.689
1434 0.319419 1441.86 268.169
1435 0.319753 1443.81 268.651
1436 0.320086 1445.77 269.133
1437 0.32042 1447.73 269.616
1438 0.320753 1449.69 270.099
1439 0.321086 1451.65 270.583
1440 0.32142 1453.61 271.068
1441 0.321753 1455.56 271.553
1442 0.322087 1457.51 272.039
1443 0.32242 1459.45 272.526
1444 0.322754 1461.39 273.013
1445 0.323087 1463.31 273.501
1446 0.323421 1465.23 273.99
1447 0.323754 1467.13 274.479
1448 0.324087 1469.02 274.969
1449 0.324421 1470.9 275.459
1450 0.324754 1472.76 275.95
1451 0.325088 1474.61 276.442
1452 0.325421 1476.45 276.934
1453 0.325755 1478.27 277.427
1454 0.326088 1480.07 277.921
1455 0.326422 1481.86 278.415
1456 0.326755 1483.63 278.91
1457 0.327088 1485.38 279.405
1458 0.327422 1487.12 279.901
1459 0.327755 1488.84 280.397
1460 0.328089 1490.55 280.894
1461 0.328422 1492.23 281.392
1462 0.328756 1493.9 281.89
1463 0.329089 1495.55 282.389
1464 0.329423 1497.18 282.888
1465 0.329756 1498.8 283.388
1466 0.33009 1500.39 283.888
1467 0.330423 1501.97 284.389
1468 0.330756 1503.53 284.89
1469 0.33109 1505.08 285.392
1470 0.331423 1506.61 285.894
1471 0.331757 1508.12 286.397
1472 0.33209 1509.61 286.901
1473 0.332424 1511.09 287.405
1474 0.332757 1512.55 287.909
1475 0.333091 1513.99 288.414
1476 0.333424 1515.42 288.919
1477 0.333757 1516.83 289.425
1478 0.334091 1518.22 289.931
1479 0.334424 1519.6 290.438
1480 0.334758 1520.97 290.945
1481 0.335091 1522.31 291.453
1482 0.335425 1523.65 291.961
1483 0.335758 1524.97 292.469
1484 0.336092 1526.27 292.978
1485 0.336425 1527.56 293.487
1486 0.336758 1528.83 293.997
1487 0.337092 1530.09 294.507
1488 0.337425 1531.34 295.018
1489 0.337759 1532.57 295.529
1490 0.338092 1533.79 296.04
1491 0.338426 1535 296.552
1492 0.338759 1536.19 297.065
1493 0.339093 1537.37 297.577
1494 0.339426 1538.53 298.09
1495 0.33976 1539.69 298.604
1496 0.340093 1540.83 299.117
1497 0.340426 1541.96 299.632
1498 0.34076 1543.08 300.146
1499 0.341093 1544.19 300.661
1500 0.341427 1545.28 301.176
1501 0.34176 1546.36 301.692
1502 0.342094 1547.44 302.208
1503 0.342427 1548.5 302.724
1504 0.342761 1549.55 303.241
1505 0.343094 1550.59 303.758
1506 0.343427 1551.62 304.275
1507 0.343761 1552.64 304.793
1508 0.344094 1553.64 305.311
1509 0.344428 1554.64 305.83
1510 0.344795 1555.73 306.4
1511 0.345161 1556.81 306.971
1512 0.345528 1557.87 307.543
1513 0.345895 1558.92 308.114
1514 0.346262 1559.97 308.687
1515 0.346629 1561 309.259
1516 0.346995 1562.02 309.832
1517 0.347362 1563.03 310.405
1518 0.347729 1564.03 310.979
1519 0.348132 1565.12 311.611
1520 0.348536 1566.19 312.242
1521 0.348939 1567.26 312.875
1522 0.349343 1568.31 313.508
1523 0.349746 1569.35 314.141
1524 0.35015 1570.38 314.774
1525 0.350553 1571.4 315.408
1526 0.350957 1572.41 316.043
1527 0.35136 1573.4 316.678
1528 0.351804 1574.49 317.376
1529 0.352248 1575.56 318.076
1530 0.352692 1576.62 318.775
1531 0.353135 1577.67 319.476
1532 0.353579 1578.71 320.176
1533 0.354023 1579.73 320.877
1534 0.354467 1580.75 321.579
1535 0.354911 1581.75 322.281
1536 0.355355 1582.74 322.983
1537 0.355843 1583.82 323.757
1538 0.356331 1584.89 324.53
1539 0.356819 1585.95 325.305
1540 0.357307 1586.99 326.079
1541 0.357796 1588.02 326.855
1542 0.358284 1589.04 327.63
1543 0.358772 1590.05 328.407
1544 0.35926 1591.04 329.183
1545 0.359797 1592.13 330.038
1546 0.360334 1593.2 330.894
1547 0.360871 1594.26 331.75
1548 0.361408 1595.3 332.607
1549 0.361945 1596.34 333.464
1550 0.362482 1597.36 334.322
1551 0.363019 1598.37 335.18
1552 0.363556 1599.37 336.039
1553 0.364147 1600.46 336.985
1554 0.364738 1601.53 337.931
1555 0.365328 1602.59 338.877
1556 0.365919 1603.64 339.825
1557 0.36651 1604.67 340.773
1558 0.367101 1605.69 341.721
1559 0.367691 1606.7 342.67
1560 0.368282 1607.7 343.62
1561 0.368932 1608.79 344.665
1562 0.369582 1609.86 345.711
1563 0.370231 1610.92 346.758
1564 0.370881 1611.97 347.806
1565 0.371531 1613 348.854
1566 0.372181 1614.02 349.903
1567 0.372831 1615.03 350.952
1568 0.37348 1616.03 352.002
1569 0.374195 1617.11 353.158
1570 0.37491 1618.18 354.315
1571 0.375625 1619.24 355.472
1572 0.37634 1620.28 356.63
1573 0.377054 1621.31 357.789
1574 0.377769 1622.33 358.949
1575 0.378484 1623.33 360.109
1576 0.379199 1624.32 361.27
1577 0.379985 1625.4 362.548
1578 0.380771 1626.47 363.827
1579 0.381557 1627.52 365.106
1580 0.382344 1628.56 366.387
1581 0.38313 1629.58 367.668
1582 0.383916 1630.59 368.95
1583 0.384702 1631.59 370.233
1584 0.385567 1632.68 371.645
1585 0.386432 1633.75 373.058
1586 0.387297 1634.81 374.472
1587 0.388162 1635.85 375.887
1588 0.389027 1636.88 377.302
1589 0.389892 1637.9 378.719
1590 0.390757 1638.9 380.137
1591 0.391621 1639.89 381.555
1592 0.392573 1640.97 383.116
1593 0.393524 1642.03 384.678
1594 0.394476 1643.08 386.241
1595 0.395427 1644.11 387.805
1596 0.396378 1645.13 389.371
1597 0.39733 1646.14 390.937
1598 0.398281 1647.13 392.504
1599 0.399328 1648.21 394.229
1600 0.400374 1649.27 395.955
1601 0.401421 1650.32 397.682
1602 0.402467 1651.35 399.41
1603 0.403514 1652.37 401.139
1604 0.40456 1653.38 402.869
1605 0.405607 1654.37 404.601
1606 0.406758 1655.46 406.506
1607 0.407909 1656.53 408.413
1608 0.40906 1657.59 410.321
1609 0.410211 1658.64 412.231
1610 0.411362 1659.67 414.141
1611 0.412513 1660.7 416.053
1612 0.413665 1661.72 417.966
1613 0.414816 1662.73 419.88
1614 0.415967 1663.73 421.795
1615 0.417233 1664.81 423.903
1616 0.418499 1665.89 426.013
1617 0.419766 1666.96 428.123
1618 0.421032 1668.01 430.236
1619 0.422298 1669.06 432.349
1620 0.423564 1670.1 434.464
1621 0.424831 1671.12 436.58
1622 0.426097 1672.14 438.697
1623 0.427363 1673.15 440.816
1624 0.42863 1674.15 442.936
1625 0.430022 1675.24 445.269
1626 0.431415 1676.32 447.604
1627 0.432808 1677.39 449.941
1628 0.434201 1678.45 452.279
1629 0.435594 1679.5 454.618
1630 0.436987 1680.54 456.959
1631 0.43838 1681.58 459.301
1632 0.439773 1682.6 461.645
1633 0.441166 1683.62 463.99
1634 0.442559 1684.63 466.336
1635 0.443951 1685.63 468.684
1636 0.445344 1686.62 471.033
1637 0.446876 1687.7 473.619
1638 0.448409 1688.78 476.207
1639 0.449941 1689.84 478.796
1640 0.451473 1690.9 481.387
1641 0.453005 1691.95 483.979
1642 0.454537 1692.99 486.573
1643 0.45607 1694.02 489.169
1644 0.457602 1695.04 491.766
1645 0.459134 1696.06 494.364
1646 0.460666 1697.07 496.965
1647 0.462198 1698.07 499.566
1648 0.463731 1699.06 502.17
1649 0.465416 1700.15 505.035
1650 0.467101 1701.23 507.902
1651 0.468787 1702.3 510.771
1652 0.470472 1703.36 513.642
1653 0.472158 1704.41 516.515
1654 0.473843 1705.46 519.389
1655 0.475528 1706.49 522.265
1656 0.477214 1707.53 525.143
1657 0.478899 1708.55 528.023
1658 0.480585 1709.57 530.904
1659 0.48227 1710.58 533.787
1660 0.483955 1711.58 536.672
1661 0.485641 1712.58 539.558
1662 0.487495 1713.67 542.735
1663 0.489349 1714.75 545.914
1664 0.491203 1715.82 549.095
1665 0.493057 1716.89 552.278
1666 0.49491 1717.95 555.463
1667 0.496764 1719 558.65
1668 0.498618 1720.05 561.839
1669 0.500472 1721.09 565.03
1670 0.502326 1722.12 568.223
1671 0.50418 1723.15 571.417
1672 0.506034 1724.16 574.614
1673 0.507888 1725.18 577.812
1674 0.509742 1726.18 581.012
1675 0.511596 1727.18 584.215
1676 0.51345 1728.18 587.418
1677 0.515489 1729.27 590.945
1678 0.517529 1730.35 594.474
1679 0.519568 1731.42 598.005
1680 0.521607 1732.49 601.538
1681 0.523647 1733.55 605.073
1682 0.525686 1734.6 608.611
1683 0.527725 1735.65 612.15
1684 0.529765 1736.69 615.692
1685 0.531804 1737.72 619.236
1686 0.533843 1738.75 622.782
1687 0.535883 1739.77 626.33
1688 0.537922 1740.79 629.88
1689 0.539961 1741.8 633.432
1690 0.542001 1742.81 636.986
1691 0.54404 1743.81 640.542
1692 0.546283 1744.9 644.456
1693 0.548526 1745.98 648.373
1694 0.55077 1747.06 652.292
1695 0.553013 1748.14 656.214
1696 0.555256 1749.2 660.138
1697 0.5575 1750.26 664.064
1698 0.559743 1751.32 667.993
1699 0.561986 1752.37 671.924
1700 0.564229 1753.41 675.857
1701 0.566473 1754.45 679.793
1702 0.568716 1755.48 683.731
1703 0.570959 1756.5 687.671
1704 0.573202 1757.52 691.614
1705 0.575446 1758.53 695.559
1706 0.577689 1759.54 699.506
1707 0.579932 1760.54 703.455
1708 0.582176 1761.54 707.407
1709 0.584643 1762.63 711.756
1710 0.587111 1763.72 716.108
1711 0.589578 1764.79 720.463
1712 0.592046 1765.87 724.821
1713 0.594513 1766.93 729.181
1714 0.596981 1767.99 733.543
1715 0.599449 1769.04 737.909
1716 0.601916 1770.09 742.276
1717 0.604384 1771.13 746.647
1718 0.606851 1772.17 751.02
1719 0.609319 1773.2 755.395
1720 0.611787 1774.22 759.774
1721 0.614254 1775.24 764.154
1722 0.616722 1776.26 768.537
1723 0.619189 1777.27 772.923
1724 0.621657 1778.27 777.311
1725 0.624125 1779.27 781.701
1726 0.626839 1780.36 786.534
1727 0.629553 1781.44 791.369
1728 0.632268 1782.52 796.208
1729 0.634982 1783.59 801.049
1730 0.637696 1784.66 805.893
1731 0.640411 1785.72 810.74
1732 0.643125 1786.77 815.59
1733 0.64584 1787.82 820.443
1734 0.648554 1788.86 825.299
1735 0.651268 1789.9 830.157
1736 0.653983 1790.93 835.018
1737 0.656697 1791.95 839.882
1738 0.659411 1792.97 844.749
1739 0.662126 1793.99 849.619
1740 0.66484 1795 854.491
1741 0.667554 1796 859.366
1742 0.670269 1797 864.243
1743 0.673255 1798.09 869.612
1744 0.67624 1799.17 874.984
1745 0.679226 1800.25 880.359
1746 0.682212 1801.32 885.738
1747 0.685198 1802.39 891.119
1748 0.688183 1803.45 896.504
1749 0.691169 1804.5 901.892
1750 0.694155 1805.55 907.283
1751 0.697141 1806.59 912.677
1752 0.700127 1807.62 918.074
1753 0.703112 1808.65 923.474
1754 0.706098 1809.68 928.878
1755 0.709084 1810.69 934.284
1756 0.71207 1811.71 939.693
1757 0.715056 1812.71 945.106
1758 0.718041 1813.71 950.521
1759 0.721027 1814.71 955.94
1760 0.724312 1815.8 961.903
1761 0.727596 1816.88 967.871
1762 0.73088 1817.95 973.841
1763 0.734165 1819.02 979.816
1764 0.737449 1820.08 985.794
1765 0.740733 1821.14 991.775
1766 0.744018 1822.19 997.76
1767 0.747302 1823.23 1003.75
1768 0.750587 1824.27 1009.74
1769 0.753871 1825.3 1015.73
1770 0.757155 1826.32 1021.73
1771 0.76044 1827.34 1027.73
1772 0.763724 1828.35 1033.74
1773 0.767008 1829.36 1039.75
1774 0.770293 1830.36 1045.76
1775 0.773906 1831.45 1052.38
1776 0.777518 1832.54 1059
1777 0.781131 1833.61 1065.62
1778 0.784744 1834.69 1072.25
1779 0.788357 1835.75 1078.88
1780 0.79197 1836.81 1085.52
1781 0.795582 1837.86 1092.16
1782 0.799195 1838.91 1098.8
1783 0.802808 1839.95 1105.45
1784 0.806421 1840.98 1112.1
1785 0.810034 1842 1118.75
1786 0.813646 1843.02 1125.41
1787 0.817259 1844.03 1132.07
1788 0.820872 1845.04 1138.74
1789 0.824485 1846.04 1145.41
1790 0.828459 1847.13 1152.75
1791 0.832433 1848.22 1160.1
1792 0.836407 1849.29 1167.45
1793 0.840381 1850.36 1174.8
1794 0.844355 1851.43 1182.16
1795 0.848329 1852.48 1189.52
1796 0.852304 1853.53 1196.88
1797 0.856278 1854.57 1204.25
1798 0.860252 1855.6 1211.63
1799 0.864226 1856.63 1219.01
1800 0.8682 1857.65 1226.39
1801 0.872174 1858.66 1233.78
1802 0.876148 1859.67 1241.17
1803 0.880122 1860.67 1248.56
1804 0.884494 1861.76 1256.7
1805 0.888865 1862.84 1264.84
1806 0.893237 1863.92 1272.99
1807 0.897608 1864.99 1281.14
1808 0.90198 1866.05 1289.3
1809 0.906351 1867.1 1297.46
1810 0.910723 1868.14 1305.63
1811 0.915094 1869.18 1313.8
1812 0.919466 1870.21 1321.98
1813 0.923837 1871.23 1330.16
1814 0.928209 1872.24 1338.34
1815 0.93258 1873.25 1346.53
1816 0.936952 1874.25 1354.72
1817 0.94176 1875.34 1363.74
1818 0.946569 1876.42 1372.76
1819 0.951378 1877.5 1381.79
1820 0.956186 1878.56 1390.83
1821 0.960995 1879.62 1399.86
1822 0.965804 1880.67 1408.91
1823 0.970612 1881.71 1417.96
1824 0.975421 1882.74 1427.01
1825 0.98023 1883.76 1436.07
1826 0.985038 1884.78 1445.13
1827 0.989847 1885.78 1454.2
1828 0.994655 1886.78 1463.27
1829 0.999945 1887.87 1473.26
1830 1.00523 1888.95 1483.25
1831 1.01052 1890.03 1493.25
1832 1.01581 1891.09 1503.25
1833 1.0211 1892.14 1513.26
1834 1.02639 1893.19 1523.27
1835 1.03168 1894.22 1533.29
1836 1.03697 1895.25 1543.32
1837 1.04226 1896.27 1553.35
1838 1.04755 1897.27 1563.38
1839 1.05284 1898.27 1573.42
1840 1.05813 1899.27 1583.47
1841 1.06395 1900.35 1594.53
1842 1.06977 1901.42 1605.59
1843 1.07559 1902.48 1616.66
1844 1.0814 1903.53 1627.74
1845 1.08722 1904.57 1638.82
1846 1.09304 1905.6 1649.91
1847 1.09886 1906.62 1661
1848 1.10468 1907.64 1672.1
1849 1.1105 1908.64 1683.2
1850 1.11631 1909.63 1694.31
1851 1.12271 1910.71 1706.54
1852 1.12911 1911.78 1718.78
1853 1.13552 1912.84 1731.02
1854 1.14192 1913.89 1743.27
1855 1.14832 1914.93 1755.53
1856 1.15472 1915.96 1767.79
1857 1.16112 1916.98 1780.06
1858 1.16752 1917.98 1792.34
1859 1.17392 1918.98 1804.62
1860 1.18096 1920.06 1818.14
1861 1.188 1921.14 1831.66
1862 1.19504 1922.2 1845.19
1863 1.20208 1923.25 1858.73
1864 1.20912 1924.28 1872.28
1865 1.21616 1925.31 1885.84
1866 1.2232 1926.32 1899.4
1867 1.23024 1927.32 1912.97
1868 1.23728 1928.31 1926.54
1869 1.24502 1929.39 1941.49
1870 1.25277 1930.46 1956.44
1871 1.26051 1931.51 1971.39
1872 1.26826 1932.55 1986.36
1873 1.276 1933.57 2001.34
1874 1.28375 1934.58 2016.32
1875 1.29149 1935.58 2031.31
1876 1.29924 1936.57 2046.31
1877 1.30775 1937.64 2062.81
1878 1.31627 1938.7 2079.33
1879 1.32479 1939.75 2095.85
1880 1.33331 1940.78 2112.38
1881 1.34183 1941.79 2128.93
1882 1.35035 1942.79 2145.48
1883 1.35887 1943.78 2162.04
1884 1.36824 1944.85 2180.26
1885 1.37761 1945.91 2198.49
1886 1.38698 1946.95 2216.74
1887 1.39635 1947.98 2234.99
1888 1.40572 1948.98 2253.26
1889 1.41509 1949.98 2271.53
1890 1.4254 1951.05 2291.64
1891 1.43571 1952.11 2311.76
1892 1.44601 1953.15 2331.89
1893 1.45632 1954.18 2352.04
1894 1.46663 1955.19 2372.19
1895 1.47694 1956.18 2392.35
1896 1.48828 1957.25 2414.55
1897 1.49961 1958.3 2436.75
1898 1.51095 1959.33 2458.97
1899 1.52229 1960.34 2481.19
1900 1.53363 1961.34 2503.43
1901 1.5461 1962.41 2527.91
1902 1.55858 1963.46 2552.4
1903 1.57105 1964.49 2576.9
1904 1.58352 1965.5 2601.41
1905 1.59599 1966.48 2625.94
1906 1.60971 1967.55 2652.94
1907 1.62343 1968.59 2679.94
1908 1.63715 1969.6 2706.97
1909 1.65087 1970.59 2734
1910 1.66596 1971.66 2763.76
1911 1.68105 1972.7 2793.53
1912 1.69615 1973.71 2823.31
1913 1.71124 1974.7 2853.12
1914 1.72784 1975.75 2885.92
1915 1.74444 1976.78 2918.73
1916 1.76104 1977.78 2951.56
1917 1.7793 1978.84 2987.7
1918 1.79756 1979.87 3023.85
1919 1.81582 1980.87 3060.03
1920 1.83591 1981.93 3099.84
1921 1.856 1982.95 3139.67
1922 1.87608 1983.93 3179.52
1923 1.89818 1984.97 3223.38
1924 1.92027 1985.97 3267.26
1925 1.94458 1987.02 3315.55
1926 1.96888 1988.03 3363.87
1927 1.99319 1988.98 3412.22
1928 2.01993 1989.98 3465.42
1929 2.04933 1991.02 3523.97
1930 2.07874 1991.99 3582.56
1931 2.11109 1992.99 3647.03
1932 2.14668 1994 3717.99
1933 2.18226 1994.93 3788.98
1934 2.22141 1995.86 3867.1
1935 2.26447 1996.77 3953.08
1936 2.31183 1997.64 4047.7
1937 2.36393 1998.44 4151.82
1938 2.42124 1999.13 4266.39
1939 2.48428 1999.66 4392.45
1940 2.55363 1999.79 4531.12
1941 2.62991 1999.88 4683.68
1942 2.71382 1999.94 4851.49
1943 2.80611 1999.97 5036.08
1944 2.90764 1999.99 5239.14
1945 3.01932 2000 5462.5
1946 3.14217 2000 5708.2


# Total time: 3.14217 s
# Total distance: 5708.2 m